timestamp,AX,AY,AZ
0,-0.54,-0.40,0.79
18,-0.54,-0.39,0.80
37,-0.46,-0.40,0.75
55,-0.36,-0.41,0.75
74,-0.37,-0.43,0.81
92,-0.47,-0.42,0.83
111,-0.53,-0.40,0.83
129,-0.47,-0.40,0.81
148,-0.37,-0.40,0.81
166,-0.33,-0.40,0.80
185,-0.37,-0.41,0.81
203,-0.42,-0.40,0.87
222,-0.40,-0.40,0.86
240,-0.36,-0.39,0.81
259,-0.35,-0.39,0.80
277,-0.34,-0.39,0.84
296,-0.36,-0.40,0.85
314,-0.45,-0.39,0.83
333,-0.49,-0.37,0.81
351,-0.37,-0.38,0.77
370,-0.26,-0.38,0.80
388,-0.29,-0.37,0.87
407,-0.38,-0.36,0.91
425,-0.38,-0.36,0.91
444,-0.35,-0.38,0.86
462,-0.37,-0.37,0.88
481,-0.35,-0.37,0.87
499,-0.30,-0.37,0.89
518,-0.27,-0.37,0.91
536,-0.34,-0.38,0.89
555,-0.40,-0.36,0.87
573,-0.40,-0.39,0.81
592,-0.38,-0.37,0.85
610,-0.36,-0.39,0.88
629,-0.40,-0.39,0.88
647,-0.48,-0.38,0.86
666,-0.49,-0.38,0.88
684,-0.46,-0.38,0.90
703,-0.45,-0.38,0.91
721,-0.44,-0.37,0.86
740,-0.45,-0.37,0.81
758,-0.46,-0.36,0.79
777,-0.43,-0.36,0.84
795,-0.42,-0.37,0.85
814,-0.49,-0.36,0.85
832,-0.56,-0.36,0.83
851,-0.56,-0.36,0.77
869,-0.56,-0.35,0.72
888,-0.52,-0.35,0.72
906,-0.48,-0.36,0.74
925,-0.49,-0.35,0.78
943,-0.46,-0.35,0.74
962,-0.43,-0.36,0.72
980,-0.44,-0.37,0.72
999,-0.49,-0.37,0.72
1017,-0.57,-0.37,0.75
1036,-0.60,-0.35,0.74
1054,-0.60,-0.35,0.76
1073,-0.63,-0.34,0.74
1091,-0.65,-0.32,0.80
1110,-0.59,-0.31,0.87
1128,-0.54,-0.32,0.92
1147,-0.57,-0.33,0.94
1165,-0.68,-0.33,0.96
1184,-0.78,-0.33,1.01
1202,-0.96,-0.32,1.14
1221,-1.27,-0.29,1.48
1239,-1.46,-0.24,1.73
1258,-1.49,-0.17,1.83
1276,-1.44,-0.11,1.86
1295,-1.49,-0.02,2.00
1313,-1.62,0.10,2.24
1332,-1.76,0.17,2.49
1350,-1.94,0.28,2.64
1369,-1.95,0.37,2.60
1387,-1.63,0.42,2.32
1406,-1.19,0.33,1.95
1424,-0.95,0.40,1.83
1443,-0.84,0.42,1.59
1461,-0.62,0.42,1.23
1480,-0.39,0.42,0.88
1498,-0.16,0.43,0.44
1517,0.15,0.48,0.05
1535,0.60,0.43,-0.24
1554,1.01,0.36,-0.40
1572,1.24,0.39,-0.41
1591,1.30,0.46,-0.51
1609,1.47,0.55,-0.77
1628,1.89,0.58,-1.12
1646,2.50,0.52,-1.49
1665,3.15,0.42,-1.78
1683,3.70,0.32,-1.67
1702,3.94,0.28,-1.33
1720,3.84,0.30,-1.08
1739,3.32,0.43,-1.04
1757,2.54,0.61,-1.17
1776,1.85,0.82,-1.12
1794,1.27,1.00,-0.73
1813,0.78,1.33,-0.10
1831,-0.12,1.50,0.66
1850,-2.29,1.74,1.05
1868,-4.00,2.06,2.04
1887,-4.00,2.28,0.84
1905,-4.00,2.01,0.02
1924,-4.00,2.08,-0.46
1942,-4.00,1.57,0.26
1961,-3.97,0.86,0.98
1979,-3.30,0.64,1.22
1998,-3.40,0.46,1.07
2016,-3.41,0.51,0.47
2035,-2.98,0.50,-0.15
2053,-2.44,0.43,-0.39
2072,-2.00,0.38,-0.29
2090,-1.73,0.40,-0.02
2109,-1.40,0.43,0.18
2127,-0.88,0.42,0.23
2146,-0.33,0.32,0.12
2164,0.20,0.27,0.03
2183,0.54,0.12,-0.17
2201,0.75,0.13,-0.20
2220,0.71,0.14,-0.14
2238,0.65,0.28,-0.07
2257,0.67,0.37,0.06
2275,0.89,0.54,0.28
2294,1.47,0.57,0.45
2312,2.36,0.39,0.42
2331,3.06,0.26,0.48
2349,3.31,0.07,0.80
2368,3.17,0.04,1.20
2386,3.04,0.02,1.41
2405,2.97,0.04,1.19
2423,2.95,0.11,0.70
2442,2.77,0.29,0.30
2460,2.34,0.52,0.17
2479,1.66,0.84,0.32
2497,0.74,1.21,0.44
2516,-0.67,1.45,0.37
2534,-2.21,1.77,-0.51
2553,-4.00,2.03,-0.54
2571,-4.00,1.85,-0.96
2590,-4.00,1.64,-2.38
2608,-4.00,1.42,-1.78
2627,-3.71,0.61,-0.88
2645,-2.26,0.28,0.25
2664,-1.95,0.03,1.02
2682,-2.11,-0.09,1.15
2701,-2.18,-0.14,0.72
2719,-2.03,-0.20,0.00
2738,-1.68,-0.24,-0.29
2756,-1.22,-0.30,-0.21
2775,-0.85,-0.34,0.06
2793,-0.71,-0.35,0.24
2812,-0.74,-0.31,0.25
2830,-0.80,-0.31,0.02
2849,-0.81,-0.28,-0.18
2867,-0.78,-0.29,-0.30
2886,-0.82,-0.28,-0.29
2904,-0.90,-0.27,-0.20
2923,-0.90,-0.26,-0.10
2941,-0.80,-0.27,-0.01
2960,-0.66,-0.31,0.06
2978,-0.65,-0.31,0.14
2997,-0.72,-0.32,0.17
3015,-0.77,-0.30,0.15
3034,-0.77,-0.32,0.15
3052,-0.78,-0.34,0.19
3071,-0.89,-0.33,0.24
3089,-1.07,-0.34,0.20
3108,-1.13,-0.32,0.08
3126,-1.01,-0.34,0.05
3145,-0.92,-0.36,0.10
3163,-0.96,-0.36,0.13
3182,-1.02,-0.33,0.12
3200,-0.98,-0.34,0.09
3219,-0.94,-0.35,0.07
3237,-0.98,-0.34,0.07
3256,-0.99,-0.33,0.07
3274,-0.94,-0.34,0.06
3293,-0.92,-0.34,0.09
3311,-0.91,-0.33,0.13
3330,-0.88,-0.33,0.18
3348,-0.93,-0.32,0.19
3367,-0.95,-0.31,0.15
3385,-0.93,-0.31,0.15
3404,-0.89,-0.31,0.19
3422,-0.84,-0.33,0.21
3441,-0.88,-0.33,0.20
3459,-0.93,-0.32,0.21
3478,-0.93,-0.33,0.18
3496,-0.90,-0.33,0.13
3515,-0.88,-0.33,0.12
3533,-0.89,-0.34,0.16
3552,-0.94,-0.34,0.15
3570,-0.96,-0.33,0.13
3589,-0.86,-0.34,0.12
3607,-0.81,-0.35,0.14
3626,-0.85,-0.34,0.17
3644,-0.86,-0.33,0.19
3663,-0.81,-0.34,0.20
3681,-0.83,-0.34,0.20
3700,-0.91,-0.33,0.13
3718,-0.96,-0.31,0.07
3737,-0.90,-0.32,0.08
3755,-0.85,-0.33,0.13
3774,-0.84,-0.32,0.13
3792,-0.82,-0.32,0.11
3811,-0.79,-0.32,0.09
3829,-0.85,-0.31,0.12
3848,-0.91,-0.30,0.14
3866,-0.90,-0.30,0.12
3885,-0.85,-0.29,0.10
3903,-0.89,-0.28,0.10
3922,-1.04,-0.25,0.16
3940,-1.22,-0.21,0.21
3959,-1.46,-0.18,0.27
3977,-1.88,-0.12,0.28
3996,-2.40,-0.01,0.34
4014,-2.85,0.12,0.48
4033,-3.10,0.21,0.70
4051,-3.12,0.26,0.96
4070,-3.07,0.31,1.13
4088,-3.03,0.37,1.21
4107,-2.75,0.35,1.28
4125,-2.39,0.36,1.25
4144,-2.07,0.33,1.06
4162,-1.76,0.34,0.78
4181,-1.38,0.36,0.52
4199,-0.94,0.36,0.34
4218,-0.59,0.34,0.25
4236,-0.30,0.36,0.12
4255,0.06,0.39,0.08
4273,0.47,0.38,-0.01
4292,0.90,0.32,-0.04
4310,1.28,0.26,-0.10
4329,1.47,0.21,-0.15
4347,1.63,0.16,-0.15
4366,1.84,0.11,-0.28
4384,2.25,0.02,-0.46
4403,2.80,-0.05,-0.64
4421,3.32,-0.20,-0.79
4440,3.50,-0.29,-0.67
4458,3.19,-0.24,-0.46
4477,2.65,-0.15,-0.30
4495,2.24,-0.08,-0.33
4514,1.95,0.00,-0.42
4532,1.68,0.10,-0.45
4551,1.22,0.17,-0.35
4569,0.68,0.30,-0.26
4588,0.34,0.48,-0.09
4606,-0.30,0.69,0.07
4625,-1.39,1.03,0.26
4643,-2.96,1.34,0.14
4662,-4.00,1.68,0.04
4680,-4.00,1.69,0.15
4699,-4.00,1.71,0.45
4717,-4.00,1.52,1.20
4736,-4.00,1.22,1.94
4754,-4.00,0.96,2.39
4773,-3.77,0.62,2.24
4791,-3.29,0.53,1.48
4810,-2.76,0.41,0.59
4828,-2.37,0.34,0.11
4847,-2.02,0.35,0.03
4865,-1.65,0.31,0.08
4884,-1.13,0.28,0.05
4902,-0.77,0.29,-0.07
4921,-0.41,0.29,-0.14
4939,0.06,0.23,-0.21
4958,0.50,0.16,-0.36
4976,0.74,0.12,-0.57
4995,0.85,0.16,-0.68
5013,1.01,0.18,-0.62
5032,1.27,0.20,-0.46
5050,1.64,0.18,-0.24
5069,2.04,0.19,-0.06
5087,2.49,0.08,0.32
5106,3.07,-0.02,0.36
5124,3.35,-0.14,0.62
5143,3.16,-0.17,0.70
5161,2.85,-0.12,0.63
5180,2.59,-0.04,0.44
5198,2.47,0.07,0.26
5217,2.32,0.26,0.22
5235,2.13,0.49,0.30
5254,1.76,0.88,0.51
5272,0.97,1.32,0.64
5291,-0.04,1.81,0.66
5309,-1.32,1.92,-0.02
5328,-3.18,2.22,-0.62
5346,-4.00,2.30,-1.10
5365,-4.00,2.02,-1.82
5383,-4.00,1.39,-1.49
5402,-3.37,0.88,-0.08
5420,-2.60,0.41,0.55
5439,-2.72,0.40,1.03
5457,-3.00,0.31,0.75
5476,-2.71,0.13,0.01
5494,-2.24,-0.02,-0.44
5513,-1.79,-0.16,-0.36
5531,-1.47,-0.23,-0.02
5550,-1.35,-0.22,0.15
5568,-1.30,-0.17,0.01
5587,-1.20,-0.13,-0.28
5605,-1.08,-0.12,-0.45
5624,-0.97,-0.11,-0.50
5642,-0.86,-0.11,-0.48
5661,-0.74,-0.09,-0.40
5679,-0.70,-0.09,-0.30
5698,-0.72,-0.07,-0.17
5716,-0.72,-0.07,-0.06
5735,-0.68,-0.09,0.04
5753,-0.62,-0.10,0.12
5772,-0.61,-0.14,0.14
5790,-0.71,-0.14,0.13
5809,-0.80,-0.13,0.15
5827,-0.80,-0.15,0.16
5846,-0.84,-0.15,0.14
5864,-0.89,-0.15,0.07
5883,-0.92,-0.16,-0.02
5901,-0.97,-0.17,-0.08
5920,-1.03,-0.17,-0.12
5938,-1.04,-0.18,-0.19
5957,-1.06,-0.17,-0.21
5975,-1.08,-0.17,-0.16
5994,-1.06,-0.17,-0.11
6012,-1.01,-0.17,-0.09
6031,-1.01,-0.17,-0.06
6049,-1.06,-0.16,-0.03
6068,-1.06,-0.13,-0.00
6086,-1.03,-0.14,0.02
6105,-1.02,-0.13,-0.00
6123,-1.02,-0.14,-0.04
6142,-1.04,-0.13,-0.06
6160,-1.02,-0.12,-0.05
6179,-0.96,-0.13,-0.03
6197,-0.94,-0.14,0.01
6216,-0.98,-0.13,0.01
6234,-1.00,-0.13,-0.03
6253,-0.96,-0.14,-0.06
6271,-0.93,-0.15,-0.04
6290,-0.96,-0.15,0.01
6308,-0.99,-0.15,0.02
6327,-0.98,-0.16,-0.01
6345,-0.96,-0.16,-0.05
6364,-0.92,-0.17,-0.07
6382,-0.91,-0.17,-0.09
6401,-0.97,-0.16,-0.09
6419,-1.05,-0.15,-0.06
6438,-1.02,-0.15,-0.06
6456,-0.97,-0.16,-0.07
6475,-0.98,-0.15,-0.04
6493,-1.01,-0.14,0.00
6512,-1.00,-0.14,0.02
6530,-0.97,-0.13,0.01
6549,-0.94,-0.14,-0.01
6567,-0.97,-0.13,-0.03
6586,-1.00,-0.12,-0.04
6604,-0.99,-0.12,-0.02
6623,-0.97,-0.13,-0.01
6641,-0.96,-0.13,-0.00
6660,-0.95,-0.13,0.00
6678,-0.94,-0.14,-0.03
6697,-0.95,-0.13,-0.05
6715,-0.95,-0.14,-0.03
6734,-0.93,-0.14,-0.02
6752,-0.91,-0.14,-0.04
6771,-0.92,-0.14,-0.06
6789,-0.94,-0.14,-0.08
6808,-0.90,-0.15,-0.09
6826,-0.88,-0.16,-0.13
6845,-0.90,-0.15,-0.14
6863,-0.90,-0.16,-0.10
6882,-0.90,-0.16,-0.06
6900,-0.91,-0.15,-0.08
6919,-0.94,-0.14,-0.13
6937,-1.03,-0.12,-0.15
6956,-1.22,-0.09,-0.18
6974,-1.44,-0.03,-0.21
6993,-1.57,0.00,-0.22
7011,-1.73,0.05,-0.21
7030,-2.02,0.14,-0.18
7048,-2.45,0.26,-0.09
7067,-2.88,0.40,0.07
7085,-3.04,0.50,0.22
7104,-2.96,0.56,0.28
7122,-2.86,0.60,0.25
7141,-2.75,0.64,0.30
7159,-2.65,0.67,0.44
7178,-2.41,0.67,0.58
7196,-2.04,0.61,0.60
7215,-1.68,0.54,0.40
7233,-1.32,0.46,0.42
7252,-0.98,0.49,0.16
7270,-0.52,0.39,0.03
7289,-0.11,0.31,-0.04
7307,0.16,0.28,0.03
7326,0.40,0.22,0.15
7344,0.76,0.17,0.22
7363,1.20,0.10,0.31
7381,1.52,0.03,0.41
7400,1.68,-0.03,0.53
7418,1.75,-0.06,0.55
7437,1.88,-0.10,0.72
7455,2.23,-0.17,0.77
7474,2.70,-0.24,0.84
7492,3.07,-0.30,0.99
7511,2.95,-0.28,1.15
7529,2.48,-0.15,1.21
7548,2.13,-0.04,1.04
7566,1.88,0.09,0.69
7585,1.55,0.19,0.45
7603,1.02,0.35,0.32
7622,0.28,0.52,0.11
7640,-0.47,0.65,-0.32
7659,-1.10,0.82,-0.71
7677,-1.79,1.04,-0.86
7696,-3.03,1.17,-1.13
7714,-4.00,1.46,-0.86
7733,-4.00,1.68,-2.02
7751,-4.00,1.67,-2.11
7770,-4.00,1.30,-1.66
7788,-4.00,0.91,-0.42
7807,-4.00,0.75,-0.05
7825,-4.00,0.66,-0.27
7844,-3.36,0.57,-0.80
7862,-2.44,0.42,-1.09
7881,-1.85,0.33,-1.04
7899,-1.62,0.30,-0.79
7918,-1.46,0.32,-0.58
7936,-1.14,0.32,-0.45
7955,-0.76,0.28,-0.36
7973,-0.40,0.25,-0.38
7992,-0.04,0.23,-0.39
8010,0.31,0.19,-0.37
8029,0.61,0.14,-0.28
8047,0.88,0.13,-0.05
8066,1.06,0.09,0.21
8084,1.20,0.05,0.33
8103,1.29,0.06,0.44
8121,1.34,0.05,0.67
8140,1.57,0.00,0.82
8158,2.04,-0.12,1.11
8177,2.55,-0.23,1.18
8195,2.83,-0.31,1.41
8214,2.56,-0.34,1.53
8232,1.92,-0.23,1.39
8251,1.47,-0.16,1.01
8269,1.38,-0.15,0.62
8288,1.41,-0.12,0.44
8306,1.31,-0.06,0.28
8325,0.99,0.07,0.14
8343,0.65,0.23,0.07
8362,0.32,0.49,0.21
8380,-0.19,0.77,0.17
8399,-0.93,1.10,-0.14
8417,-1.85,1.23,-1.29
8436,-2.89,1.45,-1.90
8454,-3.97,1.40,-2.00
8473,-4.00,1.23,-1.45
8491,-3.59,0.93,-0.57
8510,-3.07,0.72,-0.01
8528,-2.95,0.59,0.41
8547,-3.10,0.47,0.34
8565,-2.87,0.36,-0.03
8584,-2.39,0.20,-0.28
8602,-2.06,0.10,-0.22
8621,-1.91,0.06,-0.06
8639,-1.73,0.04,-0.08
8658,-1.46,-0.01,-0.27
8676,-1.20,-0.05,-0.48
8695,-1.01,-0.08,-0.56
8713,-0.92,-0.08,-0.54
8732,-0.83,-0.09,-0.48
8750,-0.74,-0.08,-0.39
8769,-0.67,-0.09,-0.27
8787,-0.63,-0.09,-0.17
8806,-0.64,-0.10,-0.07
8824,-0.68,-0.09,0.03
8843,-0.67,-0.10,0.08
8861,-0.66,-0.11,0.11
8880,-0.71,-0.10,0.12
8898,-0.79,-0.09,0.09
8917,-0.83,-0.10,0.08
8935,-0.82,-0.11,0.06
8954,-0.85,-0.11,0.06
8972,-0.93,-0.11,0.03
8991,-0.98,-0.11,-0.06
9009,-0.99,-0.12,-0.15
9028,-0.98,-0.13,-0.23
9046,-0.96,-0.15,-0.28
9065,-0.99,-0.15,-0.27
9083,-1.03,-0.15,-0.19
9102,-1.04,-0.14,-0.10
9120,-1.04,-0.13,-0.06
9139,-0.98,-0.13,-0.05
9157,-0.96,-0.13,-0.09
9176,-1.05,-0.11,-0.15
9194,-1.12,-0.08,-0.16
9213,-1.08,-0.08,-0.12
9231,-1.00,-0.09,-0.08
9250,-1.05,-0.08,-0.06
9268,-1.10,-0.07,-0.06
9287,-1.01,-0.09,-0.11
9305,-0.95,-0.10,-0.11
9324,-1.05,-0.09,-0.07
9342,-1.09,-0.08,-0.03
9361,-0.96,-0.11,-0.05
9379,-0.87,-0.14,-0.11
9398,-0.92,-0.13,-0.09
9416,-0.99,-0.12,-0.06
9435,-0.94,-0.13,-0.11
9453,-0.91,-0.14,-0.14
9472,-1.00,-0.11,-0.09
9490,-0.99,-0.11,-0.04
9509,-0.92,-0.12,-0.02
9527,-0.91,-0.12,-0.01
9546,-0.94,-0.11,-0.04
9564,-0.94,-0.11,-0.07
9583,-0.95,-0.10,-0.08
9601,-0.96,-0.11,-0.06
9620,-0.95,-0.11,-0.07
9638,-0.91,-0.11,-0.10
9657,-0.92,-0.11,-0.10
9675,-0.96,-0.10,-0.09
9694,-0.93,-0.10,-0.04
9712,-0.93,-0.10,-0.02
9731,-0.95,-0.10,-0.06
9749,-0.90,-0.11,-0.09
9768,-0.88,-0.11,-0.09
9786,-0.92,-0.11,-0.09
9805,-0.96,-0.10,-0.11
9823,-0.93,-0.10,-0.10
9842,-0.91,-0.10,-0.10
9860,-0.91,-0.09,-0.10
9879,-0.92,-0.09,-0.11
9897,-0.93,-0.09,-0.11
9916,-0.94,-0.09,-0.12
9934,-0.99,-0.08,-0.13
9953,-1.07,-0.07,-0.12
9971,-1.10,-0.06,-0.11
9990,-1.11,-0.07,-0.12
10008,-1.19,-0.08,-0.12
10027,-1.34,-0.06,-0.12
10045,-1.55,-0.01,-0.14
10064,-1.82,0.09,-0.16
10082,-2.27,0.26,-0.33
10101,-2.76,0.45,-0.60
10119,-3.10,0.65,-0.69
10138,-3.12,0.79,-0.39
10156,-2.86,0.83,0.25
10175,-2.73,0.84,0.71
10193,-2.80,0.88,0.73
10212,-2.94,0.95,0.27
10230,-2.78,1.01,-0.16
10249,-2.31,0.95,-0.22
10267,-1.82,0.93,0.07
10286,-1.50,0.85,0.38
10304,-1.17,0.85,0.33
10323,-0.73,0.77,-0.11
10341,-0.31,0.74,-0.30
10360,-0.04,0.73,-0.11
10378,0.19,0.67,0.19
10397,0.55,0.60,0.48
10415,1.04,0.51,0.58
10434,1.48,0.43,0.62
10452,1.75,0.34,0.73
10471,2.02,0.27,0.91
10489,2.41,0.17,1.17
10508,2.96,0.09,1.53
10526,3.38,-0.04,1.85
10545,3.32,-0.07,2.24
10563,2.77,0.01,2.13
10582,2.15,0.10,1.66
10600,1.77,0.13,1.08
10619,1.68,0.12,0.73
10637,1.66,0.10,0.47
10656,1.45,0.16,0.18
10674,1.05,0.22,-0.08
10693,0.50,0.35,-0.19
10711,0.00,0.51,-0.12
10730,-0.46,0.73,0.03
10748,-1.11,1.04,-0.12
10767,-1.99,1.34,-0.84
10785,-3.17,1.69,-1.76
10804,-4.00,1.97,-2.45
10822,-4.00,1.91,-2.82
10841,-4.00,2.03,-2.60
10859,-4.00,1.68,-1.54
10878,-4.00,1.36,-0.21
10896,-4.00,1.17,-0.02
10915,-4.00,1.08,-0.50
10933,-3.39,0.95,-1.09
10952,-2.48,0.75,-1.25
10970,-1.82,0.61,-1.08
10989,-1.44,0.52,-0.93
11007,-1.10,0.48,-0.89
11026,-0.73,0.42,-0.88
11044,-0.41,0.37,-0.69
11063,-0.13,0.31,-0.40
11081,0.20,0.24,-0.14
11100,0.52,0.16,0.02
11118,0.79,0.11,0.22
11137,1.06,0.05,0.37
11155,1.31,0.01,0.48
11174,1.38,0.01,0.62
11192,1.37,0.02,0.87
11211,1.46,0.01,1.24
11229,1.68,-0.03,1.54
11248,1.86,-0.08,1.95
11266,1.95,-0.11,2.30
11285,1.93,-0.12,2.47
11303,1.81,-0.08,2.34
11322,1.52,0.04,1.84
11340,1.24,0.13,1.26
11359,1.13,0.17,0.91
11377,1.07,0.27,0.80
11396,0.86,0.46,0.80
11414,0.48,0.71,0.62
11433,0.00,0.99,0.11
11451,-0.51,1.20,-0.70
11470,-1.17,1.38,-1.73
11488,-2.05,1.47,-2.55
11507,-3.01,1.44,-3.00
11525,-3.73,1.18,-2.57
11544,-3.96,1.21,-1.93
11562,-3.44,0.88,-1.20
11581,-2.64,0.56,-0.63
11599,-2.30,0.41,-0.96
11618,-2.26,0.31,-1.36
11636,-2.19,0.23,-1.33
11655,-2.00,0.11,-1.13
11673,-1.72,0.03,-0.83
11692,-1.41,-0.03,-0.57
11710,-1.14,-0.08,-0.45
11729,-0.98,-0.11,-0.49
11747,-0.85,-0.12,-0.60
11766,-0.71,-0.13,-0.70
11784,-0.60,-0.14,-0.72
11803,-0.56,-0.12,-0.65
11821,-0.60,-0.09,-0.54
11840,-0.64,-0.07,-0.48
11858,-0.66,-0.06,-0.44
11877,-0.67,-0.05,-0.35
11895,-0.69,-0.06,-0.23
11914,-0.70,-0.08,-0.19
11932,-0.74,-0.09,-0.26
11951,-0.74,-0.11,-0.36
11969,-0.75,-0.13,-0.40
11988,-0.76,-0.14,-0.31
12006,-0.78,-0.16,-0.24
12025,-0.79,-0.16,-0.27
12043,-0.82,-0.16,-0.35
12062,-0.87,-0.15,-0.40
12080,-0.87,-0.15,-0.45
12099,-0.86,-0.15,-0.50
12117,-0.91,-0.14,-0.56
12136,-0.95,-0.12,-0.61
12154,-0.95,-0.12,-0.60
12173,-0.95,-0.11,-0.53
12191,-0.97,-0.09,-0.45
12210,-0.98,-0.09,-0.40
12228,-0.96,-0.09,-0.40
12247,-0.95,-0.08,-0.39
12265,-0.97,-0.07,-0.34
12284,-0.97,-0.08,-0.33
12302,-0.92,-0.08,-0.42
12321,-0.86,-0.09,-0.51
12339,-0.87,-0.10,-0.50
12358,-0.90,-0.10,-0.46
12376,-0.89,-0.10,-0.45
12395,-0.88,-0.10,-0.45
12413,-0.90,-0.11,-0.45
12432,-0.85,-0.12,-0.47
12450,-0.80,-0.13,-0.44
12469,-0.83,-0.13,-0.37
12487,-0.88,-0.12,-0.39
12506,-0.86,-0.12,-0.46
12524,-0.85,-0.12,-0.48
12543,-0.87,-0.12,-0.46
12561,-0.88,-0.12,-0.44
12580,-0.88,-0.12,-0.44
12598,-0.86,-0.12,-0.41
12617,-0.84,-0.11,-0.36
12635,-0.86,-0.11,-0.32
12654,-0.90,-0.10,-0.36
12672,-0.92,-0.09,-0.43
12691,-0.90,-0.09,-0.46
12709,-0.90,-0.09,-0.41
12728,-0.93,-0.08,-0.33
12746,-0.98,-0.08,-0.31
12765,-0.99,-0.08,-0.33
12783,-0.94,-0.09,-0.37
12802,-0.86,-0.11,-0.39
12820,-0.84,-0.12,-0.40
12839,-0.86,-0.12,-0.46
12857,-0.83,-0.12,-0.48
12876,-0.81,-0.12,-0.41
12894,-0.83,-0.12,-0.31
12913,-0.89,-0.10,-0.33
12931,-0.92,-0.09,-0.40
12950,-0.89,-0.10,-0.44
12968,-0.85,-0.11,-0.42
12987,-0.82,-0.11,-0.39
13005,-0.82,-0.12,-0.43
13024,-0.78,-0.12,-0.46
13042,-0.78,-0.12,-0.42
13061,-0.84,-0.10,-0.36
13079,-0.88,-0.09,-0.35
13098,-0.84,-0.10,-0.37
13116,-0.82,-0.11,-0.40
13135,-0.84,-0.10,-0.43
13153,-0.84,-0.11,-0.45
13172,-0.85,-0.11,-0.49
13190,-0.87,-0.10,-0.52
13209,-0.89,-0.09,-0.53
13227,-0.95,-0.07,-0.56
13246,-1.09,-0.03,-0.65
13264,-1.29,0.04,-0.82
13283,-1.54,0.12,-1.04
13301,-1.82,0.25,-1.20
13320,-2.12,0.43,-1.24
13338,-2.37,0.65,-1.14
13357,-2.68,0.84,-0.91
13375,-3.22,1.03,-0.60
13394,-3.78,1.20,-0.34
13412,-3.84,1.27,-0.29
13431,-3.26,1.19,-0.38
13449,-2.49,1.07,-0.60
13468,-1.78,0.93,-0.74
13486,-1.17,0.75,-0.59
13505,-0.73,0.72,-0.60
13523,-0.24,0.58,-0.67
13542,0.12,0.50,-0.46
13560,0.28,0.50,-0.19
13579,0.51,0.49,0.25
13597,0.90,0.40,0.69
13616,1.49,0.28,1.09
13634,1.89,0.12,1.41
13653,2.06,0.01,1.63
13671,2.12,-0.05,1.70
13690,2.11,-0.08,1.88
13708,2.21,-0.10,2.11
13727,2.22,-0.14,2.46
13745,2.10,-0.13,2.51
13764,1.92,-0.08,2.17
13782,1.72,-0.04,1.53
13801,1.41,0.02,0.99
13819,1.08,0.06,0.74
13838,0.88,0.08,0.61
13856,0.74,0.16,0.47
13875,0.42,0.34,0.29
13893,-0.06,0.65,0.05
13912,-0.63,0.95,-0.46
13930,-1.41,1.39,-1.32
13949,-2.61,1.90,-2.30
13967,-4.00,2.36,-2.91
13986,-4.00,2.66,-3.27
14004,-4.00,2.79,-3.14
14023,-4.00,2.68,-2.51
14041,-4.00,2.35,-1.96
14060,-4.00,1.97,-1.92
14078,-3.36,1.63,-1.73
14097,-2.27,1.30,-1.70
14115,-1.49,1.01,-1.54
14134,-0.98,0.82,-1.36
14152,-0.55,0.69,-1.14
14171,-0.11,0.60,-0.88
14189,0.26,0.53,-0.60
14208,0.57,0.47,-0.32
14226,0.86,0.45,0.06
14245,1.06,0.43,0.52
14263,1.21,0.39,0.90
14282,1.35,0.36,1.11
14300,1.35,0.42,1.39
14319,1.44,0.41,1.85
14337,1.64,0.40,2.17
14356,1.87,0.32,2.87
14374,2.02,0.26,3.24
14393,2.04,0.21,3.19
14411,1.85,0.21,2.69
14430,1.51,0.28,1.84
14448,1.12,0.31,1.12
14467,0.96,0.26,0.84
14485,0.95,0.24,0.83
14504,1.03,0.23,0.89
14522,1.13,0.37,0.80
14541,1.06,0.74,0.47
14559,0.67,1.34,-0.13
14578,-0.27,1.89,-1.20
14596,-1.96,2.67,-2.82
14615,-4.00,3.49,-4.00
14633,-4.00,3.69,-4.00
14652,-4.00,3.29,-4.00
14670,-4.00,2.82,-3.61
14689,-3.98,2.11,-1.97
14707,-3.56,1.67,-1.62
14726,-3.30,1.36,-1.83
14744,-2.53,1.08,-1.97
14763,-1.54,0.80,-1.53
14781,-0.82,0.59,-1.44
14800,-0.20,0.43,-1.21
14818,0.19,0.32,-0.94
14837,0.33,0.29,-0.62
14855,0.35,0.25,-0.23
14874,0.38,0.20,0.13
14892,0.56,0.16,0.41
14911,0.81,0.08,0.61
14929,0.99,0.06,0.68
14948,1.01,0.06,0.78
14966,0.89,0.10,1.02
14985,0.85,0.11,1.43
15003,0.82,0.12,1.58
15022,0.89,0.10,2.04
15040,0.98,0.07,2.39
15059,1.06,0.02,2.59
15077,1.10,-0.03,2.56
15096,1.12,-0.04,2.29
15114,1.09,-0.01,1.89
15133,1.02,0.02,1.49
15151,0.90,0.06,1.25
15170,0.78,0.15,1.14
15188,0.71,0.29,1.15
15207,0.67,0.58,1.11
15225,0.53,0.93,0.81
15244,0.19,1.34,0.08
15262,-0.18,1.68,-1.02
15281,-0.66,2.01,-2.29
15299,-1.45,2.30,-3.54
15318,-2.57,2.29,-4.00
15336,-3.67,2.24,-4.00
15355,-3.90,1.77,-3.12
15373,-3.48,1.44,-1.54
15392,-2.87,1.11,-0.84
15410,-2.42,0.82,-0.72
15429,-2.18,0.63,-1.19
15447,-1.94,0.48,-1.54
15466,-1.64,0.33,-1.38
15484,-1.39,0.21,-1.02
15503,-1.16,0.09,-0.71
15521,-0.82,-0.02,-0.55
15540,-0.48,-0.13,-0.53
15558,-0.22,-0.20,-0.60
15577,-0.04,-0.24,-0.65
15595,0.01,-0.24,-0.66
15614,-0.09,-0.23,-0.65
15632,-0.30,-0.18,-0.62
15651,-0.48,-0.13,-0.52
15669,-0.56,-0.11,-0.38
15688,-0.58,-0.11,-0.31
15706,-0.55,-0.10,-0.32
15725,-0.51,-0.11,-0.35
15743,-0.52,-0.12,-0.37
15762,-0.60,-0.11,-0.43
15780,-0.70,-0.09,-0.51
15799,-0.70,-0.12,-0.65
15817,-0.64,-0.14,-0.76
15836,-0.67,-0.14,-0.77
15854,-0.78,-0.12,-0.72
15873,-0.82,-0.12,-0.67
15891,-0.78,-0.13,-0.63
15910,-0.77,-0.14,-0.68
15928,-0.81,-0.13,-0.75
15947,-0.85,-0.11,-0.78
15965,-0.82,-0.11,-0.78
15984,-0.73,-0.13,-0.78
16002,-0.70,-0.12,-0.76
16021,-0.76,-0.10,-0.73
16039,-0.81,-0.07,-0.70
16058,-0.77,-0.09,-0.66
16076,-0.71,-0.10,-0.68
16095,-0.71,-0.10,-0.71
16113,-0.72,-0.09,-0.68
16132,-0.72,-0.09,-0.60
16150,-0.73,-0.09,-0.59
16169,-0.74,-0.09,-0.64
16187,-0.71,-0.10,-0.67
16206,-0.67,-0.12,-0.66
16224,-0.67,-0.13,-0.64
16243,-0.68,-0.13,-0.61
16261,-0.67,-0.14,-0.61
16280,-0.64,-0.15,-0.63
16298,-0.61,-0.15,-0.63
16317,-0.61,-0.16,-0.65
16335,-0.62,-0.15,-0.66
16354,-0.66,-0.14,-0.65
16372,-0.71,-0.12,-0.66
16391,-0.75,-0.11,-0.66
16409,-0.74,-0.10,-0.62
16428,-0.74,-0.10,-0.57
16446,-0.74,-0.09,-0.57
16465,-0.73,-0.09,-0.61
16483,-0.70,-0.09,-0.65
16502,-0.69,-0.09,-0.68
16520,-0.71,-0.08,-0.69
16539,-0.72,-0.09,-0.69
16557,-0.75,-0.07,-0.69
16576,-0.78,-0.07,-0.67
16594,-0.79,-0.07,-0.65
16613,-0.77,-0.08,-0.64
16631,-0.77,-0.08,-0.63
16650,-0.74,-0.08,-0.64
16668,-0.71,-0.09,-0.65
16687,-0.70,-0.09,-0.69
16705,-0.71,-0.08,-0.71
16724,-0.75,-0.07,-0.71
16742,-0.76,-0.07,-0.67
16761,-0.76,-0.07,-0.65
16779,-0.75,-0.08,-0.66
16798,-0.73,-0.08,-0.68
16816,-0.74,-0.08,-0.70
16835,-0.76,-0.08,-0.70
16853,-0.74,-0.08,-0.70
16872,-0.71,-0.09,-0.72
16890,-0.71,-0.10,-0.77
16909,-0.76,-0.10,-0.80
16927,-0.82,-0.09,-0.84
16946,-0.87,-0.08,-0.90
16964,-0.88,-0.05,-1.03
16983,-0.90,0.01,-1.19
17001,-1.02,0.12,-1.33
17020,-1.31,0.25,-1.41
17038,-1.65,0.39,-1.40
17057,-1.87,0.52,-1.38
17075,-2.03,0.64,-1.37
17094,-2.16,0.76,-1.41
17112,-2.24,0.87,-1.46
17131,-2.24,0.94,-1.45
17149,-2.10,0.95,-1.29
17168,-1.93,0.87,-1.17
17186,-1.71,0.85,-1.23
17205,-1.38,0.76,-1.08
17223,-1.00,0.71,-1.06
17242,-0.59,0.63,-0.89
17260,-0.33,0.56,-0.58
17279,-0.21,0.51,-0.28
17297,-0.19,0.48,-0.08
17316,-0.13,0.47,0.09
17334,0.03,0.44,0.35
17353,0.15,0.40,0.65
17371,0.27,0.39,0.94
17390,0.40,0.37,1.27
17408,0.57,0.32,1.72
17427,0.81,0.28,2.19
17445,1.05,0.25,2.75
17464,1.21,0.18,3.40
17482,1.19,0.17,3.87
17501,1.12,0.15,3.90
17519,1.15,0.17,3.32
17538,1.25,0.22,2.36
17556,1.22,0.24,1.54
17575,1.07,0.21,1.09
17593,0.85,0.23,0.84
17612,0.68,0.41,0.75
17630,0.65,0.67,0.56
17649,0.60,1.06,-0.12
17667,0.27,1.64,-1.47
17686,-0.66,2.41,-3.09
17704,-2.51,3.16,-4.00
17723,-4.00,3.69,-4.00
17741,-4.00,3.54,-4.00
17760,-4.00,2.96,-4.00
17778,-3.56,2.29,-2.80
17797,-2.54,1.70,-2.10
17815,-2.17,1.30,-2.06
17834,-1.69,1.05,-2.23
17852,-1.10,0.99,-2.20
17871,-0.58,0.79,-1.66
17889,-0.14,0.56,-1.13
17908,0.22,0.42,-0.71
17926,0.49,0.32,-0.42
17945,0.68,0.27,-0.18
17963,0.79,0.23,0.10
17982,0.86,0.25,0.55
18000,0.91,0.27,1.19
18019,1.04,0.24,1.80
18037,1.27,0.20,2.52
18056,1.31,0.18,3.06
18074,1.08,0.17,3.38
18093,0.75,0.20,3.30
18111,0.52,0.22,2.88
18130,0.50,0.21,2.35
18148,0.63,0.16,1.92
18167,0.75,0.13,1.65
18185,0.75,0.13,1.40
18204,0.67,0.16,1.13
18222,0.56,0.24,0.81
18241,0.50,0.39,0.42
18259,0.41,0.62,-0.17
18278,0.12,0.99,-1.09
18296,-0.55,1.48,-2.33
18315,-1.81,2.05,-3.85
18333,-3.54,2.69,-4.00
18352,-4.00,2.93,-4.00
18370,-4.00,2.76,-4.00
18389,-4.00,2.31,-3.96
18407,-2.78,1.69,-3.04
18426,-2.10,1.25,-2.70
18444,-1.64,1.04,-2.48
18463,-1.14,0.81,-2.10
18481,-0.69,0.78,-1.64
18500,-0.31,0.61,-1.25
18518,0.07,0.41,-0.83
18537,0.29,0.33,-0.53
18555,0.38,0.34,-0.25
18574,0.37,0.42,0.13
18592,0.33,0.39,0.68
18611,0.42,0.31,1.07
18629,0.65,0.26,1.41
18648,0.81,0.23,1.70
18666,0.85,0.16,1.89
18685,0.78,0.12,2.32
18703,0.70,0.11,2.62
18722,0.66,0.06,2.80
18740,0.73,-0.01,2.82
18759,0.87,-0.04,2.61
18777,1.00,-0.03,2.21
18796,1.00,-0.01,1.79
18814,0.87,0.03,1.41
18833,0.70,0.09,1.15
18851,0.53,0.18,1.05
18870,0.39,0.40,1.10
18888,0.25,0.75,1.07
18907,0.18,1.11,0.69
18925,0.15,1.36,-0.34
18944,0.04,1.69,-1.74
18962,-0.36,2.01,-3.00
18981,-1.31,2.23,-4.00
18999,-2.73,2.13,-4.00
19018,-3.74,1.87,-4.00
19036,-3.64,1.55,-3.20
19055,-2.77,1.12,-1.61
19073,-1.86,0.69,-0.91
19092,-1.36,0.37,-0.93
19110,-1.18,0.22,-1.47
19129,-1.15,0.14,-1.89
19147,-1.07,0.07,-1.76
19166,-0.91,-0.02,-1.29
19184,-0.71,-0.09,-0.82
19203,-0.48,-0.18,-0.62
19221,-0.23,-0.24,-0.63
19240,-0.03,-0.27,-0.73
19258,0.05,-0.27,-0.82
19277,0.07,-0.29,-0.85
19295,0.05,-0.28,-0.84
19314,-0.01,-0.26,-0.77
19332,-0.15,-0.22,-0.67
19351,-0.33,-0.20,-0.57
19369,-0.46,-0.17,-0.50
19388,-0.52,-0.14,-0.49
19406,-0.51,-0.15,-0.52
19425,-0.45,-0.16,-0.57
19443,-0.44,-0.18,-0.59
19462,-0.50,-0.17,-0.63
19480,-0.54,-0.16,-0.75
19499,-0.50,-0.18,-0.86
19517,-0.48,-0.19,-0.92
19536,-0.52,-0.18,-0.93
19554,-0.55,-0.18,-0.91
19573,-0.53,-0.18,-0.88
19591,-0.52,-0.19,-0.85
19610,-0.56,-0.17,-0.85
19628,-0.61,-0.15,-0.86
19647,-0.65,-0.14,-0.83
19665,-0.65,-0.14,-0.79
19684,-0.62,-0.14,-0.77
19702,-0.59,-0.13,-0.76
19721,-0.58,-0.13,-0.74
19739,-0.57,-0.12,-0.78
19758,-0.55,-0.11,-0.85
19776,-0.53,-0.12,-0.93
19795,-0.51,-0.12,-0.97
19813,-0.53,-0.11,-0.96
19832,-0.56,-0.12,-0.90
19850,-0.55,-0.13,-0.82
19869,-0.53,-0.14,-0.76
19887,-0.52,-0.15,-0.74
19906,-0.53,-0.15,-0.74
19924,-0.53,-0.15,-0.75
19943,-0.52,-0.15,-0.76
19961,-0.50,-0.15,-0.79
19980,-0.46,-0.16,-0.82
19998,-0.47,-0.15,-0.85
20017,-0.53,-0.14,-0.86
20035,-0.58,-0.12,-0.85
20054,-0.61,-0.11,-0.81
20072,-0.60,-0.12,-0.79
20091,-0.58,-0.13,-0.76
20109,-0.55,-0.14,-0.73
20128,-0.51,-0.14,-0.73
20146,-0.49,-0.15,-0.74
20165,-0.50,-0.14,-0.77
20183,-0.52,-0.13,-0.80
20202,-0.52,-0.13,-0.79
20220,-0.54,-0.12,-0.79
20239,-0.57,-0.11,-0.80
20257,-0.59,-0.10,-0.80
20276,-0.59,-0.11,-0.76
20294,-0.56,-0.11,-0.75
20313,-0.51,-0.13,-0.75
20331,-0.48,-0.14,-0.79
20350,-0.47,-0.14,-0.81
20368,-0.46,-0.14,-0.80
20387,-0.47,-0.14,-0.77
20405,-0.49,-0.14,-0.74
20424,-0.51,-0.13,-0.74
20442,-0.51,-0.12,-0.73
20461,-0.51,-0.12,-0.74
20479,-0.52,-0.11,-0.75
20498,-0.54,-0.10,-0.75
20516,-0.55,-0.08,-0.77
20535,-0.55,-0.07,-0.83
20553,-0.56,-0.06,-0.92
20572,-0.62,-0.03,-1.03
20590,-0.70,0.02,-1.14
20609,-0.80,0.09,-1.27
20627,-0.90,0.17,-1.47
20646,-1.04,0.31,-1.70
20664,-1.30,0.49,-1.89
20683,-1.70,0.64,-1.97
20701,-2.15,0.82,-2.02
20720,-2.43,0.91,-2.09
20738,-2.42,0.97,-2.05
20757,-2.22,0.97,-1.80
20775,-1.96,0.93,-1.54
20794,-1.69,0.91,-1.38
20812,-1.33,0.85,-1.22
20831,-0.93,0.78,-1.00
20849,-0.59,0.66,-0.80
20868,-0.27,0.53,-0.30
20886,-0.14,0.54,-0.19
20905,-0.04,0.46,0.17
20923,0.06,0.37,0.46
20942,0.15,0.29,0.73
20960,0.27,0.18,0.98
20979,0.53,0.04,1.35
20997,0.74,-0.07,1.67
21016,0.95,-0.18,2.07
21034,1.04,-0.26,2.46
21053,0.95,-0.30,2.67
21071,0.76,-0.31,2.56
21090,0.65,-0.30,2.25
21108,0.70,-0.31,1.85
21127,0.81,-0.31,1.51
21145,0.87,-0.30,1.31
21164,0.85,-0.25,1.20
21182,0.81,-0.19,1.10
21201,0.71,-0.07,0.93
21219,0.50,0.14,0.74
21238,0.14,0.47,0.62
21256,-0.36,1.02,0.30
21275,-0.69,1.44,-0.75
21293,-0.91,1.96,-2.29
21312,-1.43,2.47,-4.00
21330,-2.59,2.82,-4.00
21349,-3.92,2.85,-4.00
21367,-4.00,2.71,-4.00
21386,-4.00,2.40,-2.82
21404,-3.47,2.00,-2.01
21423,-2.74,1.62,-2.04
21441,-1.99,1.36,-2.44
21460,-1.36,1.15,-2.54
21478,-0.86,0.99,-2.22
21497,-0.51,0.85,-1.68
21515,-0.24,0.72,-1.19
21534,0.03,0.61,-0.76
21552,0.32,0.48,-0.41
21571,0.55,0.39,-0.12
21589,0.65,0.35,0.18
21608,0.70,0.32,0.59
21626,0.71,0.23,1.11
21645,0.70,0.19,1.58
21663,0.74,0.11,2.09
21682,0.88,0.05,2.68
21700,0.90,0.02,3.11
21719,0.78,0.01,3.40
21737,0.60,0.04,3.30
21756,0.50,0.07,2.88
21774,0.46,0.09,2.30
21793,0.42,0.10,1.73
21811,0.45,0.07,1.31
21830,0.54,0.02,1.02
21848,0.62,0.03,0.84
21867,0.67,0.12,0.67
21885,0.65,0.31,0.35
21904,0.52,0.63,-0.20
21922,0.19,1.04,-1.09
21941,-0.46,1.60,-2.32
21959,-1.54,2.22,-3.57
21978,-3.12,2.86,-4.00
21996,-4.00,3.01,-4.00
22015,-4.00,2.97,-4.00
22033,-3.95,2.47,-4.00
22052,-2.68,1.80,-2.90
22070,-1.90,1.30,-2.30
22089,-1.49,0.99,-2.07
22107,-1.13,0.76,-1.86
22126,-0.77,0.61,-1.66
22144,-0.39,0.50,-1.38
22163,-0.07,0.41,-1.08
22181,0.21,0.31,-0.88
22200,0.48,0.24,-0.63
22218,0.67,0.18,-0.34
22237,0.66,0.17,-0.01
22255,0.46,0.21,0.23
22274,0.22,0.23,0.47
22292,0.04,0.26,0.75
22311,0.03,0.27,1.01
22329,0.21,0.24,1.32
22348,0.38,0.22,1.80
22366,0.47,0.18,2.19
22385,0.45,0.17,2.62
22403,0.29,0.16,2.94
22422,0.09,0.18,3.07
22440,0.03,0.17,3.00
22459,0.15,0.18,2.72
22477,0.33,0.21,2.31
22496,0.44,0.26,1.91
22514,0.40,0.34,1.65
22533,0.25,0.46,1.53
22551,0.10,0.68,1.47
22570,0.04,1.06,1.31
22588,0.14,1.51,0.77
22607,0.44,1.72,-0.38
22625,0.77,2.06,-2.03
22644,0.77,2.51,-3.74
22662,0.01,2.68,-4.00
22681,-1.56,2.73,-4.00
22699,-3.24,2.41,-4.00
22718,-3.76,2.01,-3.65
22736,-3.08,1.52,-2.08
22755,-2.37,1.02,-1.11
22773,-1.85,0.60,-1.08
22792,-1.31,0.38,-1.49
22810,-0.92,0.20,-1.93
22829,-0.63,0.08,-1.89
22847,-0.43,-0.04,-1.47
22866,-0.28,-0.15,-1.03
22884,-0.10,-0.23,-0.74
22903,0.13,-0.32,-0.57
22921,0.34,-0.39,-0.57
22940,0.50,-0.42,-0.57
22958,0.54,-0.43,-0.54
22977,0.40,-0.40,-0.46
22995,0.12,-0.33,-0.41
23014,-0.14,-0.27,-0.37
23032,-0.28,-0.23,-0.36
23051,-0.29,-0.22,-0.40
23069,-0.24,-0.22,-0.46
23088,-0.27,-0.21,-0.52
23106,-0.36,-0.19,-0.58
23125,-0.41,-0.19,-0.64
23143,-0.40,-0.19,-0.72
23162,-0.38,-0.20,-0.81
23180,-0.36,-0.20,-0.89
23199,-0.37,-0.20,-0.93
23217,-0.39,-0.21,-0.96
23236,-0.40,-0.22,-1.04
23254,-0.39,-0.22,-1.11
23273,-0.39,-0.22,-1.11
23291,-0.45,-0.21,-1.04
23310,-0.51,-0.20,-0.97
23328,-0.51,-0.19,-0.93
23347,-0.50,-0.19,-0.95
23365,-0.49,-0.18,-0.98
23384,-0.46,-0.17,-0.99
23402,-0.43,-0.17,-0.96
23421,-0.42,-0.17,-0.94
23439,-0.42,-0.16,-0.93
23458,-0.41,-0.16,-0.91
23476,-0.41,-0.16,-0.88
23495,-0.40,-0.17,-0.86
23513,-0.40,-0.17,-0.84
23532,-0.41,-0.17,-0.83
23550,-0.40,-0.17,-0.85
23569,-0.37,-0.17,-0.87
23587,-0.36,-0.17,-0.88
23606,-0.38,-0.17,-0.88
23624,-0.40,-0.16,-0.88
23643,-0.40,-0.16,-0.87
23661,-0.40,-0.17,-0.85
23680,-0.41,-0.16,-0.84
23698,-0.45,-0.15,-0.83
23717,-0.49,-0.14,-0.84
23735,-0.51,-0.13,-0.84
23754,-0.52,-0.13,-0.86
23772,-0.51,-0.13,-0.89
23791,-0.51,-0.13,-0.89
23809,-0.51,-0.13,-0.88
23828,-0.50,-0.13,-0.86
23846,-0.48,-0.15,-0.84
23865,-0.45,-0.16,-0.84
23883,-0.40,-0.17,-0.84
23902,-0.33,-0.19,-0.82
23920,-0.32,-0.19,-0.83
23939,-0.37,-0.18,-0.84
23957,-0.40,-0.18,-0.85
23976,-0.38,-0.18,-0.84
23994,-0.35,-0.18,-0.82
24013,-0.33,-0.17,-0.83
24031,-0.35,-0.16,-0.84
24050,-0.37,-0.17,-0.83
24068,-0.37,-0.16,-0.81
24087,-0.36,-0.17,-0.81
24105,-0.37,-0.16,-0.81
24124,-0.39,-0.15,-0.84
24142,-0.40,-0.15,-0.87
24161,-0.38,-0.15,-0.88
24179,-0.36,-0.15,-0.86
24198,-0.38,-0.14,-0.86
24216,-0.41,-0.13,-0.85
24235,-0.45,-0.12,-0.87
24253,-0.47,-0.11,-0.89
24272,-0.46,-0.12,-0.92
24290,-0.44,-0.11,-0.93
24309,-0.44,-0.12,-0.92
24327,-0.42,-0.12,-0.91
24346,-0.37,-0.11,-0.97
24364,-0.35,-0.07,-1.12
24383,-0.39,0.05,-1.40
24401,-0.55,0.26,-1.79
24420,-0.95,0.59,-2.35
24438,-1.52,0.95,-2.87
24457,-2.16,1.31,-3.17
24475,-2.72,1.56,-3.24
24494,-2.94,1.69,-3.06
24512,-2.64,1.68,-2.67
24531,-1.95,1.55,-2.18
24549,-1.24,1.39,-1.76
24568,-0.72,1.21,-1.42
24586,-0.31,1.16,-1.06
24605,0.02,1.10,-0.68
24623,0.28,0.97,-0.23
24642,0.36,0.96,0.19
24660,0.27,0.94,0.63
24679,0.21,0.90,1.23
24697,0.28,0.80,1.92
24716,0.42,0.65,2.54
24734,0.34,0.58,3.04
24753,0.17,0.52,3.46
24771,-0.01,0.45,3.74
24790,-0.05,0.38,3.87
24808,0.07,0.31,3.79
24827,0.34,0.27,3.47
24845,0.61,0.23,3.01
24864,0.72,0.25,2.48
24882,0.67,0.28,1.90
24901,0.57,0.32,1.40
24919,0.54,0.41,0.96
24938,0.62,0.54,0.44
24956,0.68,0.78,-0.19
24975,0.46,1.19,-0.98
24993,-0.08,1.71,-2.07
25012,-0.87,2.41,-3.24
25030,-1.79,3.09,-4.00
25049,-2.75,3.53,-4.00
25067,-3.59,3.54,-4.00
25086,-3.94,3.40,-4.00
25104,-3.53,3.07,-4.00
25123,-2.70,2.39,-3.13
25141,-2.11,1.99,-2.75
25160,-1.43,1.57,-2.27
25178,-0.63,1.28,-1.93
25197,-0.07,1.03,-1.50
25215,0.27,0.88,-0.98
25234,0.51,0.72,-0.56
25252,0.77,0.63,-0.11
25271,0.93,0.62,0.26
25289,0.94,0.55,0.80
25308,0.86,0.44,1.29
25326,0.80,0.46,1.80
25345,0.74,0.48,2.42
25363,0.55,0.48,2.77
25382,0.23,0.47,3.03
25400,-0.16,0.49,2.99
25419,-0.44,0.52,2.92
25437,-0.56,0.50,2.97
25456,-0.60,0.49,2.96
25474,-0.51,0.45,2.81
25493,-0.25,0.39,2.51
25511,0.07,0.39,2.10
25530,0.26,0.41,1.77
25548,0.26,0.49,1.51
25567,0.15,0.66,1.29
25585,0.15,0.90,0.97
25604,0.35,1.21,0.46
25622,0.62,1.61,-0.45
25641,0.83,2.03,-1.79
25659,0.74,2.62,-3.36
25678,-0.09,3.21,-4.00
25696,-2.03,3.63,-4.00
25715,-3.99,3.52,-4.00
25733,-4.00,2.97,-4.00
25752,-3.12,2.33,-3.64
25770,-2.16,1.85,-2.25
25789,-1.37,1.22,-2.15
25807,-0.77,0.86,-2.18
25826,-0.48,0.61,-2.19
25844,-0.27,0.40,-1.73
25863,-0.14,0.25,-1.16
25881,0.03,0.09,-0.68
25900,0.22,-0.05,-0.30
25918,0.37,-0.18,-0.11
25937,0.42,-0.27,-0.03
25955,0.37,-0.31,0.01
25974,0.23,-0.35,-0.00
25992,0.10,-0.33,-0.07
26011,0.10,-0.38,0.14
26029,0.14,-0.39,0.20
26048,0.13,-0.41,0.16
26066,0.05,-0.44,0.05
26085,0.01,-0.47,-0.00
26103,-0.04,-0.48,-0.03
26122,-0.13,-0.50,-0.10
26140,-0.19,-0.52,-0.18
26159,-0.22,-0.55,-0.28
26177,-0.25,-0.57,-0.31
26196,-0.31,-0.58,-0.29
26214,-0.41,-0.57,-0.26
26233,-0.50,-0.55,-0.29
26251,-0.52,-0.52,-0.40
26270,-0.42,-0.52,-0.57
26288,-0.30,-0.50,-0.76
26307,-0.21,-0.49,-0.92
26325,-0.19,-0.46,-1.01
26344,-0.19,-0.44,-1.03
26362,-0.22,-0.41,-0.99
26381,-0.29,-0.36,-0.96
26399,-0.39,-0.33,-0.95
26418,-0.49,-0.30,-0.96
26436,-0.55,-0.28,-0.96
26455,-0.60,-0.27,-0.98
26473,-0.61,-0.26,-1.01
26492,-0.58,-0.29,-1.03
26510,-0.49,-0.24,-1.06
26529,-0.39,-0.30,-1.00
26547,-0.27,-0.37,-0.80
26566,-0.27,-0.36,-0.84
26584,-0.32,-0.35,-0.94
26603,-0.35,-0.34,-0.94
26621,-0.34,-0.34,-0.93
26640,-0.33,-0.35,-0.90
26658,-0.32,-0.37,-0.84
26677,-0.34,-0.36,-0.86
26695,-0.36,-0.35,-0.90
26714,-0.36,-0.35,-0.91
26732,-0.32,-0.36,-0.90
26751,-0.31,-0.35,-0.89
26769,-0.34,-0.34,-0.89
26788,-0.37,-0.34,-0.87
26806,-0.36,-0.34,-0.85
26825,-0.36,-0.34,-0.86
26843,-0.38,-0.34,-0.89
26862,-0.39,-0.33,-0.90
26880,-0.38,-0.34,-0.87
26899,-0.35,-0.35,-0.83
26917,-0.33,-0.36,-0.83
26936,-0.32,-0.36,-0.83
26954,-0.32,-0.36,-0.83
26973,-0.32,-0.36,-0.82
26991,-0.32,-0.36,-0.80
27010,-0.32,-0.36,-0.77
27028,-0.31,-0.36,-0.77
27047,-0.28,-0.36,-0.78
27065,-0.29,-0.37,-0.79
27084,-0.31,-0.37,-0.79
27102,-0.32,-0.36,-0.79
27121,-0.33,-0.35,-0.79
27139,-0.32,-0.36,-0.79
27158,-0.29,-0.36,-0.77
27176,-0.29,-0.37,-0.76
27195,-0.29,-0.37,-0.75
27213,-0.27,-0.38,-0.74
27232,-0.24,-0.39,-0.75
27250,-0.20,-0.40,-0.74
27269,-0.19,-0.41,-0.72
27287,-0.19,-0.42,-0.70
27306,-0.19,-0.42,-0.66
27324,-0.18,-0.43,-0.60
27343,-0.16,-0.44,-0.54
27361,-0.10,-0.42,-0.50
27380,-0.05,-0.39,-0.55
27398,-0.04,-0.33,-0.71
27417,-0.04,-0.23,-1.02
27435,-0.09,-0.09,-1.47
27454,-0.21,0.16,-1.93
27472,-0.44,0.46,-2.38
27491,-0.87,0.84,-2.90
27509,-1.51,1.29,-3.51
27528,-2.20,1.66,-4.00
27546,-2.71,1.91,-4.00
27565,-2.63,1.92,-3.82
27583,-1.89,1.73,-2.94
27602,-1.05,1.46,-2.06
27620,-0.50,1.25,-1.53
27639,-0.16,1.09,-1.14
27657,0.06,1.02,-0.76
27676,0.18,1.01,-0.35
27694,0.20,1.05,0.09
27713,0.11,1.13,0.47
27731,0.00,1.23,0.93
27750,-0.03,1.30,1.50
27768,-0.11,1.39,1.76
27787,-0.19,1.45,2.69
27805,-0.35,1.46,3.58
27824,-0.70,1.43,4.00
27842,-1.17,1.37,4.00
27861,-1.50,1.31,4.00
27879,-1.71,1.33,4.00
27898,-1.49,1.31,3.68
27916,-0.90,1.29,3.14
27935,-0.33,1.26,2.78
27953,0.05,1.29,2.38
27972,0.25,1.27,1.76
27990,0.36,1.39,1.15
28009,0.38,1.69,0.59
28027,0.41,2.09,-0.11
28046,0.63,2.53,-1.16
28064,1.02,3.12,-2.80
28083,1.40,3.95,-4.00
28101,0.75,4.00,-4.00
28120,-1.00,4.00,-4.00
28138,-2.67,4.00,-4.00
28157,-3.01,4.00,-4.00
28175,-2.31,3.35,-3.75
28194,-1.87,2.35,-2.69
28212,-1.34,1.58,-2.24
28231,-0.45,1.10,-2.14
28249,0.25,0.88,-1.90
28268,0.66,0.67,-1.69
28286,0.77,0.63,-1.30
28305,0.65,0.64,-0.85
28323,0.42,0.70,-0.43
28342,0.25,0.84,-0.01
28360,0.21,0.88,0.50
28379,0.31,0.81,1.05
28397,0.42,0.84,1.44
28416,0.51,0.88,1.98
28434,0.51,0.87,2.48
28453,0.36,0.87,2.83
28471,0.03,0.88,3.16
28490,-0.43,0.93,3.43
28508,-0.91,0.95,3.91
28527,-1.16,0.94,3.84
28545,-1.03,0.91,3.58
28564,-0.58,0.83,2.95
28582,-0.12,0.76,2.28
28601,0.12,0.71,1.84
28619,0.20,0.69,1.59
28638,0.14,0.81,1.33
28656,0.03,1.03,0.96
28675,-0.04,1.41,0.60
28693,0.02,1.82,0.05
28712,0.29,2.26,-0.96
28730,0.73,2.82,-2.34
28749,1.24,3.45,-4.00
28767,1.25,3.93,-4.00
28786,0.30,3.65,-4.00
28804,-1.06,3.20,-4.00
28823,-1.81,2.98,-4.00
28841,-1.57,2.27,-3.48
28860,-1.24,1.68,-2.33
28878,-1.09,1.25,-1.98
28897,-0.78,0.97,-2.17
28915,-0.18,0.87,-2.55
28934,0.37,0.77,-2.34
28952,0.62,0.51,-1.81
28971,0.57,0.38,-1.28
28989,0.33,0.37,-1.03
29008,0.04,0.33,-0.84
29026,-0.18,0.30,-0.65
29045,-0.21,0.38,-0.42
29063,-0.09,0.12,-0.12
29082,0.10,0.12,-0.10
29100,0.31,0.00,0.46
29119,0.41,-0.19,0.65
29137,0.43,-0.26,0.81
29156,0.38,-0.34,1.00
29174,0.28,-0.41,1.15
29193,0.18,-0.46,1.06
29211,0.11,-0.55,0.92
29230,0.02,-0.61,0.71
29248,-0.06,-0.67,0.65
29267,-0.12,-0.73,0.61
29285,-0.18,-0.80,0.54
29304,-0.22,-0.84,0.52
29322,-0.24,-0.87,0.51
29341,-0.30,-0.88,0.42
29359,-0.38,-0.87,0.31
29378,-0.45,-0.84,0.13
29396,-0.45,-0.84,-0.03
29415,-0.33,-0.86,-0.18
29433,-0.11,-0.89,-0.31
29452,0.14,-0.93,-0.41
29470,0.34,-0.95,-0.50
29489,0.47,-0.97,-0.61
29507,0.48,-0.95,-0.72
29526,0.38,-0.92,-0.80
29544,0.20,-0.88,-0.86
29563,0.01,-0.84,-0.93
29581,-0.11,-0.82,-0.89
29600,-0.17,-0.80,-0.84
29618,-0.18,-0.80,-0.82
29637,-0.14,-0.80,-0.80
29655,-0.08,-0.81,-0.78
29674,-0.03,-0.82,-0.74
29692,-0.01,-0.83,-0.66
29711,-0.00,-0.82,-0.57
29729,0.00,-0.83,-0.52
29748,0.02,-0.84,-0.52
29766,0.02,-0.83,-0.54
29785,0.01,-0.83,-0.53
29803,0.00,-0.83,-0.53
29822,0.03,-0.83,-0.52
29840,0.07,-0.84,-0.52
29859,0.08,-0.83,-0.54
29877,0.02,-0.81,-0.58
29896,-0.08,-0.79,-0.60
29914,-0.18,-0.77,-0.61
29933,-0.23,-0.76,-0.60
29951,-0.20,-0.78,-0.59
29970,-0.10,-0.81,-0.57
29988,0.01,-0.83,-0.54
30007,0.05,-0.84,-0.52
30025,0.04,-0.85,-0.52
30044,0.03,-0.84,-0.47
30062,-0.02,-0.83,-0.48
30081,-0.08,-0.80,-0.53
30099,-0.12,-0.80,-0.58
30118,-0.12,-0.80,-0.62
30136,-0.09,-0.80,-0.61
30155,-0.07,-0.80,-0.57
30173,-0.03,-0.82,-0.51
30192,-0.01,-0.83,-0.47
30210,-0.01,-0.83,-0.48
30229,-0.03,-0.82,-0.51
30247,-0.05,-0.82,-0.54
30266,-0.05,-0.82,-0.53
30284,-0.03,-0.83,-0.52
30303,-0.00,-0.84,-0.52
30321,0.03,-0.84,-0.53
30340,0.04,-0.84,-0.54
30358,0.01,-0.84,-0.56
30377,-0.03,-0.83,-0.55
30395,-0.04,-0.84,-0.50
30414,-0.02,-0.85,-0.46
30432,-0.01,-0.85,-0.45
30451,0.00,-0.86,-0.46
30469,0.01,-0.85,-0.48
30488,-0.00,-0.85,-0.49
30506,-0.00,-0.85,-0.49
30525,-0.01,-0.85,-0.47
30543,-0.01,-0.85,-0.45
30562,-0.01,-0.84,-0.46
30580,0.00,-0.84,-0.49
30599,-0.01,-0.84,-0.53
30617,-0.02,-0.84,-0.55
30636,-0.03,-0.85,-0.55
30654,-0.04,-0.85,-0.58
30673,-0.02,-0.86,-0.64
30691,0.02,-0.87,-0.72
30710,0.06,-0.87,-0.81
30728,0.10,-0.88,-0.91
30747,0.15,-0.89,-1.07
30765,0.16,-0.90,-1.18
30784,0.10,-0.86,-1.25
30802,0.01,-0.82,-1.31
30821,-0.06,-0.78,-1.37
30839,-0.05,-0.75,-1.40
30858,0.00,-0.72,-1.35
30876,0.03,-0.69,-1.23
30895,-0.03,-0.63,-1.06
30913,-0.09,-0.56,-0.87
30932,-0.13,-0.48,-0.68
30950,-0.17,-0.39,-0.50
30969,-0.23,-0.25,-0.28
30987,-0.30,-0.15,-0.02
31006,-0.35,-0.01,0.39
31024,-0.34,0.12,0.94
31043,-0.38,0.26,1.46
31061,-0.52,0.36,2.19
31080,-0.75,0.50,3.01
31098,-1.10,0.61,3.66
31117,-1.38,0.75,4.00
31135,-1.37,0.84,4.00
31154,-0.93,0.92,3.76
31172,-0.22,1.03,3.04
31191,0.25,1.09,2.38
31209,0.35,1.26,2.02
31228,0.13,1.58,1.66
31246,-0.03,2.09,1.07
31265,0.15,2.60,0.19
31283,0.57,3.10,-1.33
31302,1.05,3.99,-3.26
31320,1.36,4.00,-4.00
31339,0.80,4.00,-4.00
31357,-0.57,4.00,-4.00
31376,-1.77,3.50,-4.00
31394,-1.94,3.03,-4.00
31413,-1.61,2.28,-2.98
31431,-1.32,1.51,-2.58
31450,-0.98,1.16,-2.85
31468,-0.26,0.93,-3.12
31487,0.36,0.74,-2.73
31505,0.67,0.55,-1.98
31524,0.72,0.67,-1.65
31542,0.57,0.74,-1.17
31561,0.36,0.80,-0.82
31579,0.20,0.89,-0.40
31598,0.15,0.98,0.13
31616,0.17,0.97,0.55
31635,0.18,1.04,0.94
31653,0.23,1.20,1.35
31672,0.22,1.28,1.86
31690,0.01,1.34,2.11
31709,-0.40,1.47,2.47
31727,-0.98,1.64,3.05
31746,-1.69,1.79,3.85
31764,-2.58,1.77,4.00
31783,-3.06,1.80,4.00
31801,-2.87,1.74,3.67
31820,-1.84,1.67,2.94
31838,-0.82,1.54,2.32
31857,-0.28,1.48,1.94
31875,-0.16,1.48,1.79
31894,-0.25,1.69,1.50
31912,-0.24,2.15,1.17
31931,-0.03,2.85,0.58
31949,0.41,3.62,-0.38
31968,1.11,4.00,-1.94
31986,2.15,4.00,-3.92
32005,2.99,4.00,-4.00
32023,2.56,4.00,-4.00
32042,1.02,3.96,-4.00
32060,-0.26,3.06,-4.00
32079,-0.52,2.34,-3.81
32097,-0.53,1.81,-1.57
32116,-0.62,1.05,-1.05
32134,-0.76,0.54,-1.34
32153,-0.53,0.38,-2.02
32171,0.07,0.35,-2.48
32190,0.59,0.33,-2.30
32208,0.87,0.17,-2.05
32227,0.88,0.24,-1.55
32245,0.85,0.18,-1.12
32264,0.92,0.14,-1.08
32282,1.03,0.17,-0.96
32301,1.01,0.20,-0.74
32319,0.73,0.16,-0.58
32338,0.32,0.12,-0.43
32356,-0.13,0.35,-0.45
32375,-0.41,0.15,-0.29
32393,-0.56,0.10,-0.16
32412,-0.60,-0.03,0.30
32430,-0.56,-0.11,0.70
32449,-0.51,-0.24,1.06
32467,-0.51,-0.34,1.30
32486,-0.57,-0.43,1.36
32504,-0.64,-0.49,1.21
32523,-0.65,-0.58,1.03
32541,-0.58,-0.67,0.78
32560,-0.42,-0.73,0.70
32578,-0.24,-0.79,0.64
32597,-0.11,-0.83,0.54
32615,-0.07,-0.83,0.41
32634,-0.08,-0.83,0.22
32652,-0.07,-0.85,-0.02
32671,0.02,-0.89,-0.19
32689,0.13,-0.92,-0.33
32708,0.24,-0.95,-0.40
32726,0.29,-0.97,-0.47
32745,0.24,-0.97,-0.51
32763,0.13,-0.97,-0.52
32782,-0.00,-0.96,-0.50
32800,-0.11,-0.95,-0.48
32819,-0.15,-0.96,-0.47
32837,-0.12,-0.96,-0.50
32856,-0.03,-0.96,-0.55
32874,0.06,-0.96,-0.61
32893,0.11,-0.96,-0.66
32911,0.10,-0.95,-0.68
32930,0.07,-0.94,-0.66
32948,0.01,-0.92,-0.60
32967,-0.05,-0.91,-0.52
32985,-0.09,-0.90,-0.44
33004,-0.09,-0.90,-0.42
33022,-0.03,-0.90,-0.40
33041,0.02,-0.90,-0.40
33059,0.05,-0.90,-0.40
33078,0.04,-0.89,-0.41
33096,-0.00,-0.88,-0.44
33115,-0.03,-0.87,-0.44
33133,-0.05,-0.87,-0.42
33152,-0.07,-0.87,-0.40
33170,-0.07,-0.87,-0.42
33189,-0.04,-0.89,-0.44
33207,-0.00,-0.89,-0.43
33226,-0.01,-0.89,-0.40
33244,-0.05,-0.88,-0.41
33263,-0.06,-0.88,-0.42
33281,-0.06,-0.88,-0.43
33300,-0.03,-0.90,-0.40
33318,-0.02,-0.90,-0.35
33337,-0.01,-0.91,-0.34
33355,0.01,-0.91,-0.36
33374,0.01,-0.90,-0.39
33392,-0.03,-0.89,-0.42
33411,-0.02,-0.89,-0.42
33429,0.03,-0.90,-0.43
33448,0.07,-0.91,-0.46
33466,0.07,-0.90,-0.46
33485,0.01,-0.90,-0.44
33503,-0.05,-0.89,-0.41
33522,-0.07,-0.89,-0.41
33540,-0.02,-0.90,-0.44
33559,0.05,-0.91,-0.47
33577,0.06,-0.91,-0.47
33596,0.02,-0.91,-0.42
33614,-0.04,-0.90,-0.43
33633,-0.03,-0.90,-0.44
33651,0.03,-0.91,-0.45
33670,0.06,-0.91,-0.43
33688,0.04,-0.91,-0.42
33707,0.00,-0.90,-0.43
33725,-0.04,-0.89,-0.44
33744,-0.06,-0.89,-0.44
33762,-0.05,-0.89,-0.42
33781,-0.02,-0.90,-0.40
33799,-0.00,-0.90,-0.40
33818,-0.01,-0.90,-0.40
33836,-0.01,-0.89,-0.40
33855,0.00,-0.90,-0.40
33873,0.01,-0.90,-0.45
33892,0.01,-0.90,-0.48
33910,0.01,-0.90,-0.48
33929,-0.01,-0.90,-0.46
33947,-0.03,-0.91,-0.45
33966,-0.04,-0.92,-0.45
33984,-0.00,-0.94,-0.48
34003,0.05,-0.96,-0.52
34021,0.09,-0.98,-0.56
34040,0.10,-0.99,-0.62
34058,0.10,-0.99,-0.69
34077,0.12,-0.99,-0.75
34095,0.14,-1.02,-0.86
34114,0.17,-1.02,-0.98
34132,0.22,-1.02,-1.11
34151,0.25,-0.99,-1.27
34169,0.27,-0.96,-1.38
34188,0.24,-0.92,-1.41
34206,0.18,-0.86,-1.35
34225,0.10,-0.80,-1.23
34243,0.01,-0.72,-1.09
34262,-0.04,-0.62,-0.88
34280,-0.13,-0.53,-0.65
34299,-0.24,-0.40,-0.40
34317,-0.34,-0.32,-0.16
34336,-0.36,-0.21,0.09
34354,-0.33,-0.14,0.36
34373,-0.29,-0.05,0.69
34391,-0.29,0.02,1.07
34410,-0.36,0.15,1.51
34428,-0.51,0.21,1.91
34447,-0.73,0.33,2.31
34465,-0.97,0.39,2.81
34484,-1.18,0.48,3.28
34502,-1.31,0.59,3.68
34521,-1.20,0.69,3.84
34539,-0.77,0.79,3.72
34558,-0.17,0.97,3.28
34576,0.22,1.16,2.70
34595,0.22,1.44,2.12
34613,-0.00,1.92,1.53
34632,-0.21,2.60,0.84
34650,-0.07,3.07,-0.47
34669,0.49,3.76,-2.36
34687,1.28,4.00,-4.00
34706,1.49,4.00,-4.00
34724,0.63,4.00,-4.00
34743,-0.65,4.00,-4.00
34761,-1.36,3.61,-4.00
34780,-1.47,2.85,-3.91
34798,-1.33,2.00,-2.46
34817,-1.07,1.36,-2.22
34835,-0.59,0.81,-2.02
34854,0.10,0.67,-1.95
34872,0.62,0.59,-1.71
34891,0.94,0.60,-1.36
34909,0.92,0.64,-0.83
34928,0.68,0.80,-0.14
34946,0.34,0.82,0.41
34965,0.04,0.83,0.82
34983,-0.27,0.93,1.09
35002,-0.45,0.93,1.63
35020,-0.58,0.87,2.02
35039,-0.70,0.84,2.24
35057,-0.86,0.83,2.53
35076,-1.09,0.83,2.90
35094,-1.43,0.87,3.13
35113,-1.83,0.82,3.35
35131,-1.99,0.80,3.37
35150,-1.93,0.82,3.27
35168,-1.57,0.87,2.98
35187,-1.06,0.91,2.67
35205,-0.71,0.99,2.25
35224,-0.57,1.22,1.82
35242,-0.48,1.41,1.41
35261,-0.40,1.76,0.90
35279,-0.24,2.24,0.30
35298,0.14,2.74,-0.46
35316,0.85,3.15,-1.66
35335,1.77,3.74,-3.09
35353,2.61,4.00,-4.00
35372,2.58,4.00,-4.00
35390,1.34,3.69,-4.00
35409,0.05,3.15,-4.00
35427,-0.76,2.81,-4.00
35446,-1.17,2.31,-2.78
35464,-1.33,1.34,-2.11
35483,-1.18,1.10,-1.81
35501,-0.51,0.51,-2.13
35520,0.44,0.40,-2.19
35538,1.07,0.27,-1.99
35557,1.27,0.36,-1.56
35575,1.05,0.14,-1.03
35594,0.57,0.28,-0.86
35612,0.11,0.41,-0.47
35631,-0.15,0.16,-0.06
35649,-0.20,0.16,0.13
35668,-0.03,-0.03,0.69
35686,0.15,-0.23,0.85
35705,0.22,-0.35,0.97
35723,0.18,-0.42,1.04
35742,0.07,-0.46,1.02
35760,-0.03,-0.48,0.83
35779,-0.08,-0.59,0.66
35797,-0.16,-0.63,0.50
35816,-0.24,-0.66,0.46
35834,-0.30,-0.70,0.41
35853,-0.34,-0.77,0.37
35871,-0.32,-0.83,0.30
35890,-0.27,-0.88,0.26
35908,-0.20,-0.90,0.21
35927,-0.17,-0.92,0.21
35945,-0.16,-0.92,0.16
35964,-0.15,-0.93,0.05
35982,-0.10,-0.94,-0.04
36001,-0.01,-0.88,-0.03
36019,0.13,-0.97,-0.04
36038,0.20,-0.97,-0.24
36056,0.24,-0.96,-0.32
36075,0.23,-0.95,-0.36
36093,0.15,-0.91,-0.38
36112,0.02,-0.88,-0.44
36130,-0.11,-0.85,-0.55
36149,-0.18,-0.83,-0.67
36167,-0.20,-0.82,-0.72
36186,-0.19,-0.84,-0.71
36204,-0.18,-0.84,-0.67
36223,-0.18,-0.85,-0.63
36241,-0.18,-0.85,-0.57
36260,-0.16,-0.86,-0.52
36278,-0.11,-0.86,-0.48
36297,-0.04,-0.89,-0.50
36315,0.06,-0.91,-0.48
36334,0.11,-0.92,-0.47
36352,0.09,-0.91,-0.47
36371,0.03,-0.91,-0.49
36389,0.00,-0.90,-0.49
36408,0.00,-0.90,-0.44
36426,-0.01,-0.91,-0.39
36445,-0.07,-0.88,-0.38
36463,-0.11,-0.87,-0.41
36482,-0.09,-0.87,-0.42
36500,-0.03,-0.88,-0.40
36519,0.01,-0.88,-0.37
36537,0.04,-0.89,-0.38
36556,0.07,-0.89,-0.38
36574,0.06,-0.89,-0.39
36593,-0.01,-0.88,-0.40
36611,-0.09,-0.86,-0.39
36630,-0.13,-0.85,-0.36
36648,-0.12,-0.85,-0.36
36667,-0.08,-0.86,-0.40
36685,-0.03,-0.86,-0.50
36704,0.04,-0.87,-0.58
36722,0.08,-0.89,-0.58
36741,0.07,-0.89,-0.56
36759,0.02,-0.88,-0.56
36778,0.02,-0.89,-0.60
36796,0.08,-0.89,-0.60
36815,0.11,-0.91,-0.58
36833,0.06,-0.90,-0.53
36852,-0.04,-0.89,-0.48
36870,-0.12,-0.88,-0.45
36889,-0.12,-0.89,-0.45
36907,-0.06,-0.89,-0.46
36926,-0.02,-0.91,-0.46
36944,-0.02,-0.90,-0.43
36963,-0.04,-0.90,-0.42
36981,-0.04,-0.89,-0.42
37000,0.03,-0.92,-0.37
37018,0.09,-0.92,-0.32
37037,0.10,-0.91,-0.28
37055,0.06,-0.89,-0.31
37074,0.02,-0.89,-0.37
37092,0.01,-0.89,-0.42
37111,-0.01,-0.88,-0.41
37129,-0.06,-0.88,-0.36
37148,-0.12,-0.87,-0.31
37166,-0.13,-0.87,-0.29
37185,-0.07,-0.88,-0.29
37203,0.03,-0.90,-0.30
37222,0.06,-0.90,-0.34
37240,0.02,-0.88,-0.41
37259,-0.03,-0.87,-0.45
37277,-0.06,-0.87,-0.44
37296,-0.07,-0.88,-0.41
37314,-0.05,-0.89,-0.34
37333,-0.03,-0.90,-0.33
37351,-0.02,-0.91,-0.36
37370,-0.01,-0.91,-0.41
37388,-0.02,-0.92,-0.44
37407,-0.06,-0.92,-0.46
37425,-0.10,-0.92,-0.52
37444,-0.14,-0.93,-0.65
37462,-0.13,-0.91,-0.85
37481,-0.07,-0.89,-1.10
37499,0.05,-0.86,-1.31
37518,0.14,-0.83,-1.50
37536,0.13,-0.76,-1.70
37555,-0.02,-0.70,-1.80
37573,-0.19,-0.63,-1.76
37592,-0.30,-0.60,-1.58
37610,-0.30,-0.57,-1.29
37629,-0.23,-0.57,-1.02
37647,-0.17,-0.56,-0.82
37666,-0.13,-0.53,-0.64
37684,-0.10,-0.48,-0.46
37703,-0.09,-0.42,-0.26
37721,-0.09,-0.34,-0.01
37740,-0.14,-0.27,0.30
37758,-0.20,-0.21,0.75
37777,-0.23,-0.16,1.36
37795,-0.21,-0.13,1.92
37814,-0.31,-0.07,2.65
37832,-0.45,0.00,3.23
37851,-0.62,0.06,3.49
37869,-0.74,0.12,3.37
37888,-0.71,0.17,2.89
37906,-0.49,0.19,2.28
37925,-0.19,0.15,1.78
37943,0.14,0.11,1.53
37962,0.41,0.08,1.44
37980,0.57,0.08,1.35
37999,0.62,0.16,1.08
38017,0.58,0.31,0.63
38036,0.43,0.56,0.05
38054,0.25,0.94,-0.83
38073,0.21,1.26,-2.18
38091,0.40,1.76,-3.87
38110,0.38,2.16,-4.00
38128,-0.13,2.17,-4.00
38147,-0.92,2.36,-4.00
38165,-1.50,1.94,-4.00
38184,-1.50,1.28,-4.00
38202,-1.14,0.83,-2.97
38221,-0.65,0.48,-2.17
38239,-0.16,0.22,-1.94
38258,0.25,0.09,-1.79
38276,0.53,0.01,-1.52
38295,0.71,0.01,-1.01
38313,0.77,0.01,-0.58
38332,0.75,0.03,-0.12
38350,0.61,0.03,0.19
38369,0.42,0.12,0.44
38387,0.24,0.24,0.85
38406,0.09,0.30,1.37
38424,-0.01,0.33,1.88
38443,-0.21,0.41,2.46
38461,-0.45,0.44,2.77
38480,-0.77,0.50,2.97
38498,-1.12,0.57,2.93
38517,-1.34,0.59,2.87
38535,-1.45,0.61,2.70
38554,-1.44,0.58,2.47
38572,-1.22,0.53,2.22
38591,-0.89,0.52,1.99
38609,-0.59,0.50,1.79
38628,-0.42,0.51,1.63
38646,-0.38,0.60,1.45
38665,-0.44,0.75,1.32
38683,-0.48,1.17,1.16
38702,-0.21,1.48,0.67
38720,0.40,1.60,-0.22
38739,1.26,1.83,-1.40
38757,2.00,2.24,-2.46
38776,2.09,2.42,-3.77
38794,1.62,2.23,-4.00
38813,0.44,2.25,-4.00
38831,-0.91,2.28,-4.00
38850,-1.85,2.04,-4.00
38868,-1.98,1.62,-3.74
38887,-1.74,1.27,-2.79
38905,-1.10,0.96,-2.34
38924,-0.25,0.73,-2.54
38942,0.27,0.59,-2.89
38961,0.42,0.51,-2.97
38979,0.23,0.52,-2.71
38998,-0.11,0.54,-2.22
39016,-0.25,0.47,-1.79
39035,-0.12,0.35,-1.52
39053,0.12,0.23,-1.37
39072,0.31,0.11,-1.33
39090,0.44,-0.01,-1.24
39109,0.55,0.06,-1.33
39127,0.61,-0.02,-1.18
39146,0.48,0.16,-0.93
39164,0.22,0.14,-0.59
39183,-0.11,0.09,-0.42
39201,-0.29,0.08,-0.13
39220,-0.26,-0.09,0.19
39238,-0.09,-0.21,0.41
39257,0.08,-0.31,0.61
39275,0.11,-0.39,0.71
39294,-0.02,-0.43,0.78
39312,-0.13,-0.50,1.02
39331,-0.28,-0.52,1.00
39349,-0.39,-0.57,1.10
39368,-0.41,-0.62,1.15
39386,-0.31,-0.67,1.09
39405,-0.19,-0.71,0.85
39423,-0.13,-0.74,0.58
39442,-0.17,-0.75,0.39
39460,-0.25,-0.76,0.25
39479,-0.30,-0.77,0.18
39497,-0.29,-0.76,0.16
39516,-0.23,-0.79,0.10
39534,-0.10,-0.84,-0.01
39553,0.02,-0.87,-0.13
39571,0.05,-0.89,-0.26
39590,0.00,-0.92,-0.41
39608,-0.07,-0.91,-0.47
39627,-0.13,-0.91,-0.47
39645,-0.15,-0.92,-0.47
39664,-0.08,-0.94,-0.47
39682,0.02,-0.95,-0.53
39701,0.06,-0.94,-0.64
39719,0.08,-0.95,-0.73
39738,0.08,-0.94,-0.77
39756,0.04,-0.93,-0.76
39775,-0.02,-0.91,-0.74
39793,-0.03,-0.91,-0.68
39812,-0.00,-0.92,-0.61
39830,0.02,-0.92,-0.59
39849,0.01,-0.92,-0.56
39867,-0.04,-0.89,-0.51
39886,-0.10,-0.87,-0.46
39904,-0.14,-0.86,-0.44
39923,-0.08,-0.87,-0.42
39941,0.02,-0.88,-0.41
39960,0.08,-0.89,-0.42
39978,0.09,-0.88,-0.45
39997,0.03,-0.87,-0.49
40015,-0.06,-0.84,-0.52
40034,-0.12,-0.84,-0.53
40052,-0.10,-0.84,-0.52
40071,-0.06,-0.85,-0.46
40089,-0.05,-0.86,-0.42
40108,-0.04,-0.87,-0.41
40126,-0.02,-0.88,-0.39
40145,0.01,-0.88,-0.39
40163,0.04,-0.89,-0.41
40182,0.06,-0.89,-0.44
40200,0.05,-0.87,-0.45
40219,0.01,-0.87,-0.44
40237,-0.04,-0.86,-0.45
40256,-0.09,-0.84,-0.45
40274,-0.12,-0.84,-0.47
40293,-0.15,-0.85,-0.50
40311,-0.15,-0.85,-0.50
40330,-0.11,-0.86,-0.49
40348,-0.04,-0.88,-0.49
40367,0.04,-0.89,-0.48
40385,0.06,-0.90,-0.48
40404,0.03,-0.89,-0.51
40422,-0.01,-0.88,-0.54
40441,-0.04,-0.87,-0.56
40459,-0.03,-0.87,-0.60
40478,-0.02,-0.86,-0.62
40496,-0.03,-0.87,-0.56
40515,-0.05,-0.85,-0.49
40533,-0.05,-0.84,-0.50
40552,-0.03,-0.85,-0.54
40570,0.01,-0.85,-0.51
40589,0.05,-0.86,-0.43
40607,0.06,-0.86,-0.40
40626,0.06,-0.86,-0.41
40644,0.04,-0.86,-0.41
40663,-0.01,-0.86,-0.38
40681,-0.06,-0.87,-0.33
40700,-0.06,-0.89,-0.28
40718,-0.03,-0.92,-0.27
40737,0.04,-0.94,-0.31
40755,0.10,-0.98,-0.45
40774,0.20,-1.01,-0.67
40792,0.31,-1.02,-0.90
40811,0.38,-1.01,-1.10
40829,0.38,-0.97,-1.34
40848,0.33,-0.91,-1.56
40866,0.27,-0.85,-1.77
40885,0.20,-0.77,-1.96
40903,0.10,-0.68,-2.06
40922,-0.02,-0.60,-2.03
40940,-0.14,-0.51,-1.78
40959,-0.24,-0.43,-1.39
40977,-0.27,-0.34,-1.02
40996,-0.25,-0.25,-0.73
41014,-0.18,-0.18,-0.39
41033,-0.15,-0.16,-0.00
41051,-0.16,-0.09,0.61
41070,-0.22,-0.03,1.34
41088,-0.29,0.02,2.02
41107,-0.57,0.13,2.54
41125,-0.89,0.20,3.14
41144,-1.23,0.25,3.34
41162,-1.43,0.29,3.16
41181,-1.32,0.30,2.72
41199,-0.85,0.28,2.14
41218,-0.31,0.23,1.74
41236,0.10,0.21,1.58
41255,0.38,0.25,1.45
41273,0.46,0.36,1.18
41292,0.30,0.59,0.70
41310,-0.10,1.05,0.05
41329,-0.41,1.55,-0.91
41347,-0.24,1.97,-2.16
41366,0.49,2.48,-3.95
41384,1.18,2.82,-4.00
41403,1.27,2.68,-4.00
41421,0.63,2.07,-4.00
41440,-0.16,2.12,-4.00
41458,-0.75,1.78,-4.00
41477,-1.05,1.40,-3.16
41495,-1.03,0.97,-2.44
41514,-0.56,0.63,-2.34
41532,0.17,0.45,-1.88
41551,0.77,0.30,-1.37
41569,1.13,0.18,-1.08
41588,1.15,0.19,-0.94
41606,0.86,0.21,-0.66
41625,0.49,0.34,-0.24
41643,0.19,0.37,0.14
41662,-0.03,0.39,0.47
41680,-0.19,0.45,0.82
41699,-0.31,0.49,1.18
41717,-0.42,0.53,1.41
41736,-0.57,0.49,1.87
41754,-0.80,0.56,2.07
41773,-1.03,0.55,2.57
41791,-1.35,0.62,2.87
41810,-1.75,0.67,2.97
41828,-2.05,0.68,2.93
41847,-2.03,0.67,2.74
41865,-1.65,0.70,2.47
41884,-1.12,0.72,2.20
41902,-0.72,0.74,1.96
41921,-0.52,0.90,1.72
41939,-0.44,1.10,1.41
41958,-0.20,1.31,0.92
41976,0.17,1.60,0.33
41995,0.62,1.91,-0.36
42013,1.15,2.22,-1.61
42032,1.69,2.64,-2.83
42050,1.95,3.02,-4.00
42069,1.56,2.81,-4.00
42087,0.41,2.50,-4.00
42106,-0.70,2.64,-4.00
42124,-1.25,2.11,-4.00
42143,-1.18,1.65,-3.48
42161,-0.84,1.25,-2.47
42180,-0.42,0.85,-2.29
42198,0.02,0.63,-2.40
42217,0.35,0.50,-2.50
42235,0.53,0.43,-2.35
42254,0.58,0.38,-2.01
42272,0.49,0.38,-1.63
42291,0.35,0.40,-1.41
42309,0.27,0.35,-1.26
42328,0.22,0.28,-1.09
42346,0.19,0.09,-0.73
42365,0.13,0.23,-0.78
42383,0.04,0.12,-0.40
42402,-0.05,0.10,-0.20
42420,-0.13,-0.02,-0.01
42439,-0.16,-0.14,0.20
42457,-0.16,-0.21,0.38
42476,-0.10,-0.32,0.54
42494,-0.09,-0.40,0.70
42513,-0.12,-0.48,0.77
42531,-0.22,-0.51,0.79
42550,-0.36,-0.54,0.80
42568,-0.49,-0.58,0.75
42587,-0.59,-0.62,0.63
42605,-0.63,-0.67,0.48
42624,-0.58,-0.70,0.40
42642,-0.46,-0.74,0.31
42661,-0.34,-0.77,0.19
42679,-0.23,-0.80,0.14
42698,-0.16,-0.81,0.07
42716,-0.13,-0.83,-0.04
42735,-0.07,-0.86,-0.15
42753,-0.00,-0.87,-0.22
42772,0.03,-0.87,-0.28
42790,0.02,-0.89,-0.37
42809,0.03,-0.90,-0.47
42827,0.03,-0.89,-0.57
42846,-0.04,-0.88,-0.67
42864,-0.16,-0.87,-0.72
42883,-0.27,-0.85,-0.73
42901,-0.28,-0.86,-0.76
42920,-0.21,-0.88,-0.77
42938,-0.11,-0.89,-0.72
42957,-0.06,-0.88,-0.69
42975,-0.05,-0.89,-0.73
42994,-0.02,-0.89,-0.75
43012,0.02,-0.90,-0.73
43031,0.04,-0.89,-0.63
43049,0.02,-0.89,-0.54
43068,-0.01,-0.89,-0.48
43086,-0.03,-0.89,-0.41
43105,-0.04,-0.89,-0.35
43123,-0.05,-0.89,-0.32
43142,-0.06,-0.89,-0.31
43160,-0.07,-0.88,-0.31
43179,-0.08,-0.87,-0.31
43197,-0.08,-0.86,-0.34
43216,-0.06,-0.86,-0.36
43234,-0.04,-0.86,-0.43
43253,-0.01,-0.86,-0.48
43271,-0.00,-0.85,-0.50
43290,-0.04,-0.84,-0.52
43308,-0.12,-0.83,-0.53
43327,-0.17,-0.82,-0.55
43345,-0.18,-0.82,-0.54
43364,-0.15,-0.83,-0.51
43382,-0.10,-0.84,-0.49
43401,-0.09,-0.85,-0.49
43419,-0.11,-0.85,-0.50
43438,-0.12,-0.84,-0.52
43456,-0.10,-0.86,-0.54
43475,-0.06,-0.85,-0.54
43493,-0.01,-0.87,-0.52
43512,0.00,-0.88,-0.50
43530,-0.00,-0.88,-0.50
43549,-0.02,-0.88,-0.50
43567,-0.03,-0.88,-0.47
43586,-0.05,-0.87,-0.46
43604,-0.07,-0.87,-0.47
43623,-0.06,-0.87,-0.49
43641,-0.02,-0.88,-0.52
43660,0.03,-0.90,-0.53
43678,0.07,-0.91,-0.54
43697,0.08,-0.93,-0.59
43715,0.06,-0.93,-0.66
43734,0.05,-0.94,-0.73
43752,0.06,-0.96,-0.80
43771,0.11,-0.97,-0.90
43789,0.16,-0.98,-1.01
43808,0.20,-0.97,-1.13
43826,0.19,-0.92,-1.28
43845,0.12,-0.87,-1.47
43863,0.07,-0.82,-1.64
43882,0.06,-0.76,-1.71
43900,0.09,-0.70,-1.62
43919,0.07,-0.62,-1.38
43937,-0.00,-0.52,-1.13
43956,-0.10,-0.44,-0.90
43974,-0.17,-0.36,-0.66
43993,-0.20,-0.25,-0.34
44011,-0.23,-0.16,-0.06
44030,-0.27,-0.08,0.24
44048,-0.32,0.03,0.56
44067,-0.40,0.16,0.99
44085,-0.49,0.30,1.48
44104,-0.66,0.44,1.85
44122,-0.90,0.60,2.51
44141,-1.22,0.69,3.04
44159,-1.69,0.87,3.35
44178,-2.12,1.01,3.31
44196,-2.18,1.11,3.17
44215,-1.71,1.09,2.88
44233,-0.99,1.19,2.64
44252,-0.40,1.27,2.47
44270,-0.09,1.43,2.28
44289,-0.05,1.78,2.04
44307,-0.21,2.39,1.59
44326,-0.32,3.34,0.77
44344,-0.03,4.00,-0.41
44363,0.70,4.00,-2.33
44381,1.85,4.00,-4.00
44400,2.15,4.00,-4.00
44418,0.80,4.00,-4.00
44437,-1.16,4.00,-4.00
44455,-1.95,4.00,-4.00
44474,-1.83,3.83,-3.96
44492,-1.62,2.74,-2.48
44511,-1.37,1.82,-2.33
44529,-0.75,1.28,-2.20
44548,0.12,0.96,-2.21
44566,0.79,0.78,-1.96
44585,1.21,0.71,-1.48
44603,1.38,0.65,-0.98
44622,1.29,0.85,-0.52
44640,1.06,0.81,0.11
44659,0.74,0.91,0.46
44677,0.46,0.97,1.25
44696,0.26,0.96,1.85
44714,-0.06,0.95,1.95
44733,-0.39,0.92,2.38
44751,-0.71,0.98,2.59
44770,-0.99,0.98,2.85
44788,-1.35,0.99,3.08
44807,-1.77,0.98,3.19
44825,-2.13,1.00,3.29
44844,-2.26,1.00,3.10
44862,-1.85,0.94,2.74
44881,-1.08,0.87,2.37
44899,-0.49,0.86,2.06
44918,-0.19,0.91,1.83
44936,-0.19,1.16,1.64
44955,-0.41,1.70,1.25
44973,-0.50,2.41,0.80
44992,-0.13,3.23,-0.17
45010,0.71,3.76,-1.66
45029,1.76,4.00,-3.65
45047,2.61,4.00,-4.00
45066,2.12,4.00,-4.00
45084,0.52,3.98,-4.00
45103,-0.67,3.19,-4.00
45121,-0.79,2.61,-3.73
45140,-0.73,2.03,-1.42
45158,-0.81,1.20,-1.20
45177,-0.98,0.66,-1.34
45195,-0.72,0.44,-1.80
45214,0.01,0.40,-2.13
45232,0.68,0.34,-2.01
45251,1.11,0.26,-1.80
45269,1.29,0.19,-1.35
45288,1.27,0.14,-1.01
45306,1.11,-0.04,-0.45
45325,0.79,-0.08,-0.59
45343,0.35,0.24,-0.57
45362,0.00,0.12,-0.39
45380,-0.18,0.04,-0.31
45399,-0.18,0.01,-0.08
45417,-0.11,-0.16,0.12
45436,-0.08,-0.20,0.19
45454,-0.10,-0.25,0.29
45473,-0.15,-0.34,0.27
45491,-0.24,-0.41,0.25
45510,-0.36,-0.44,0.24
45528,-0.46,-0.49,0.27
45547,-0.52,-0.53,0.35
45565,-0.57,-0.58,0.35
45584,-0.60,-0.62,0.41
45602,-0.60,-0.69,0.48
45621,-0.57,-0.72,0.46
45639,-0.49,-0.78,0.41
45658,-0.37,-0.82,0.36
45676,-0.25,-0.85,0.25
45695,-0.18,-0.86,0.14
45713,-0.17,-0.89,0.00
45732,-0.17,-0.90,-0.08
45750,-0.18,-0.91,-0.08
45769,-0.22,-0.89,-0.05
45787,-0.25,-0.91,-0.09
45806,-0.20,-0.93,-0.11
45824,-0.14,-0.94,-0.14
45843,-0.11,-0.92,-0.19
45861,-0.10,-0.94,-0.27
45880,-0.08,-0.94,-0.35
45898,-0.07,-0.94,-0.41
45917,-0.09,-0.92,-0.46
45935,-0.10,-0.92,-0.52
45954,-0.10,-0.91,-0.56
45972,-0.10,-0.91,-0.55
45991,-0.12,-0.90,-0.51
46009,-0.17,-0.88,-0.47
46028,-0.23,-0.87,-0.47
46046,-0.27,-0.86,-0.44
46065,-0.26,-0.87,-0.39
46083,-0.20,-0.89,-0.32
46102,-0.11,-0.91,-0.27
46120,-0.01,-0.93,-0.29
46139,0.07,-0.96,-0.37
46157,0.10,-0.95,-0.42
46176,0.04,-0.93,-0.45
46194,-0.07,-0.91,-0.45
46213,-0.18,-0.90,-0.44
46231,-0.23,-0.89,-0.43
46250,-0.19,-0.91,-0.43
46268,-0.10,-0.92,-0.44
46287,-0.04,-0.92,-0.48
46305,-0.05,-0.91,-0.53
46324,-0.10,-0.90,-0.57
46342,-0.13,-0.89,-0.57
46361,-0.14,-0.88,-0.55
46379,-0.12,-0.88,-0.53
46398,-0.09,-0.89,-0.54
46416,-0.07,-0.90,-0.56
46435,-0.08,-0.91,-0.56
46453,-0.11,-0.91,-0.55
46472,-0.14,-0.91,-0.53
46490,-0.12,-0.92,-0.54
46509,-0.10,-0.92,-0.58
46527,-0.09,-0.93,-0.60
46546,-0.09,-0.93,-0.64
46564,-0.09,-0.93,-0.66
46583,-0.05,-0.95,-0.67
46601,0.01,-0.96,-0.70
46620,0.05,-0.96,-0.77
46638,0.07,-0.95,-0.87
46657,0.06,-0.93,-0.94
46675,0.01,-0.89,-0.94
46694,-0.03,-0.88,-0.91
46712,-0.04,-0.84,-0.93
46731,-0.02,-0.80,-1.05
46749,-0.02,-0.74,-1.26
46768,-0.05,-0.63,-1.44
46786,-0.15,-0.54,-1.44
46805,-0.24,-0.45,-1.25
46823,-0.24,-0.38,-0.94
46842,-0.18,-0.32,-0.59
46860,-0.14,-0.24,-0.29
46879,-0.17,-0.15,0.02
46897,-0.22,-0.06,0.33
46916,-0.26,0.05,0.72
46934,-0.32,0.19,1.15
46953,-0.35,0.32,1.75
46971,-0.58,0.50,2.25
46990,-0.98,0.73,2.96
47008,-1.47,0.83,3.58
47027,-2.05,1.04,3.86
47045,-2.36,1.15,3.82
47064,-2.11,1.29,3.38
47082,-1.35,1.37,2.70
47101,-0.65,1.37,2.05
47119,-0.24,1.42,1.77
47138,-0.07,1.46,1.57
47156,-0.08,1.65,1.39
47175,-0.18,2.01,1.06
47193,-0.21,2.60,0.47
47212,0.10,3.21,-0.42
47230,0.86,3.87,-1.88
47249,1.90,4.00,-4.00
47267,2.56,4.00,-4.00
47286,1.71,4.00,-4.00
47304,-0.30,4.00,-4.00
47323,-1.74,4.00,-4.00
47341,-1.99,3.91,-4.00
47360,-1.78,2.97,-2.82
47378,-1.52,2.00,-2.37
47397,-1.03,1.31,-2.12
47415,-0.09,0.93,-2.03
47434,0.72,0.71,-1.82
47452,1.24,0.60,-1.54
47471,1.53,0.64,-1.23
47489,1.48,0.90,-0.73
47508,1.22,0.91,0.04
47526,0.79,1.02,0.31
47545,0.37,1.16,1.04
47563,0.12,1.03,1.73
47582,-0.25,1.03,1.80
47600,-0.57,1.07,2.22
47619,-0.89,1.05,2.65
47637,-1.32,1.13,2.77
47656,-1.79,1.19,2.74
47674,-2.25,1.17,2.71
47693,-2.57,1.18,2.53
47711,-2.68,1.13,2.28
47730,-2.39,1.02,2.15
47748,-1.74,0.94,2.20
47767,-1.12,0.89,2.30
47785,-0.71,0.90,2.24
47804,-0.48,1.06,2.11
47822,-0.39,1.30,1.54
47841,-0.26,1.71,1.00
47859,-0.05,2.45,0.37
47878,0.45,3.23,-0.59
47896,1.41,3.71,-2.28
47915,2.64,4.00,-4.00
47933,3.18,4.00,-4.00
47952,2.12,4.00,-4.00
47970,0.44,3.64,-4.00
47989,-0.55,3.41,-4.00
48007,-0.68,2.99,-3.71
48026,-0.69,2.24,-1.85
48044,-0.76,1.48,-1.51
48063,-0.79,0.94,-1.54
48081,-0.42,0.64,-1.66
48100,0.24,0.62,-1.85
48118,0.85,0.42,-1.58
48137,1.25,0.45,-1.51
48155,1.26,0.49,-1.04
48174,1.04,0.52,-0.52
48192,0.72,0.39,-0.08
48211,0.31,0.55,0.10
48229,-0.06,0.40,0.54
48248,-0.29,0.30,0.89
48266,-0.46,0.11,1.16
48285,-0.65,-0.01,1.19
48303,-0.78,-0.08,1.32
48322,-0.81,-0.18,1.37
48340,-0.77,-0.25,1.29
48359,-0.76,-0.37,1.07
48377,-0.80,-0.40,0.78
48396,-0.80,-0.47,0.73
48414,-0.74,-0.59,0.58
48433,-0.63,-0.66,0.48
48451,-0.49,-0.74,0.54
48470,-0.37,-0.79,0.59
48488,-0.31,-0.82,0.56
48507,-0.28,-0.87,0.46
48525,-0.24,-0.88,0.26
48544,-0.18,-0.92,0.01
48562,-0.07,-0.96,-0.15
48581,0.04,-0.99,-0.22
48599,0.11,-1.03,-0.24
48618,0.11,-1.06,-0.20
48636,0.03,-1.04,-0.17
48655,-0.08,-1.04,-0.18
48673,-0.14,-1.02,-0.22
48692,-0.16,-1.00,-0.29
48710,-0.18,-0.98,-0.34
48729,-0.17,-0.99,-0.41
48747,-0.11,-1.00,-0.46
48766,-0.04,-1.00,-0.45
48784,-0.01,-0.99,-0.37
48803,-0.03,-0.97,-0.30
48821,-0.10,-0.96,-0.30
48840,-0.15,-0.95,-0.30
48858,-0.16,-0.94,-0.28
48877,-0.17,-0.92,-0.24
48895,-0.20,-0.91,-0.23
48914,-0.23,-0.90,-0.26
48932,-0.24,-0.90,-0.25
48951,-0.24,-0.90,-0.22
48969,-0.22,-0.91,-0.18
48988,-0.17,-0.94,-0.18
49006,-0.10,-0.95,-0.18
49025,-0.08,-0.96,-0.16
49043,-0.12,-0.95,-0.16
49062,-0.17,-0.95,-0.18
49080,-0.18,-0.95,-0.20
49099,-0.16,-0.95,-0.22
49117,-0.15,-0.94,-0.24
49136,-0.15,-0.95,-0.26
49154,-0.14,-0.95,-0.23
49173,-0.13,-0.96,-0.23
49191,-0.10,-0.97,-0.24
49210,-0.04,-1.00,-0.24
49228,0.03,-1.01,-0.22
49247,0.06,-1.03,-0.22
49265,0.05,-1.02,-0.22
49284,-0.02,-1.00,-0.23
49302,-0.11,-0.98,-0.26
49321,-0.16,-0.97,-0.30
49339,-0.18,-0.97,-0.31
49358,-0.15,-0.98,-0.31
49376,-0.09,-1.00,-0.30
49395,-0.03,-1.02,-0.32
49413,-0.01,-1.03,-0.37
49432,-0.01,-1.03,-0.41
49450,-0.03,-1.03,-0.47
49469,-0.03,-1.04,-0.50
49487,-0.01,-1.04,-0.53
49506,0.01,-1.04,-0.54
49524,0.03,-1.04,-0.55
49543,0.03,-1.03,-0.55
49561,0.03,-1.02,-0.56
49580,0.02,-0.99,-0.57
49598,-0.01,-0.96,-0.55
49617,-0.05,-0.93,-0.50
49635,-0.09,-0.88,-0.43
49654,-0.10,-0.85,-0.35
49672,-0.08,-0.83,-0.24
49691,-0.06,-0.77,-0.11
49709,-0.07,-0.72,-0.00
49728,-0.14,-0.59,0.16
49746,-0.25,-0.52,0.29
49765,-0.33,-0.42,0.48
49783,-0.39,-0.32,0.73
49802,-0.46,-0.24,1.01
49820,-0.56,-0.18,1.20
49839,-0.72,-0.10,1.48
49857,-0.92,-0.01,1.67
49876,-1.12,0.07,1.92
49894,-1.27,0.15,2.06
49913,-1.31,0.23,2.28
49931,-1.23,0.31,2.41
49950,-1.01,0.44,2.51
49968,-0.69,0.63,2.54
49987,-0.41,0.86,2.33
50005,-0.27,1.16,2.01
50024,-0.32,1.60,1.54
50042,-0.47,2.29,0.83
50061,-0.34,3.02,-0.21
50079,0.19,3.65,-1.60
50098,1.08,4.00,-3.70
50116,2.03,4.00,-4.00
50135,1.71,4.00,-4.00
50153,0.37,4.00,-4.00
50172,-0.74,4.00,-4.00
50190,-1.06,4.00,-4.00
50209,-1.00,3.48,-3.33
50227,-0.94,2.48,-2.13
50246,-0.88,1.68,-1.89
50264,-0.64,1.12,-1.69
50283,-0.07,1.13,-1.56
50301,0.53,0.77,-1.10
50320,0.91,0.78,-0.71
50338,1.02,1.03,-0.28
50357,0.94,0.93,0.28
50375,0.67,1.05,0.54
50394,0.43,1.17,1.30
50412,0.23,1.05,1.77
50431,-0.21,1.25,1.58
50449,-0.63,1.32,2.18
50468,-1.05,1.44,2.50
50486,-1.54,1.45,2.48
50505,-2.15,1.59,2.39
50523,-2.72,1.60,2.22
50542,-3.10,1.54,2.00
50560,-3.13,1.51,1.78
50579,-2.75,1.41,1.92
50597,-2.09,1.32,2.12
50616,-1.47,1.29,2.25
50634,-1.08,1.25,2.34
50653,-0.93,1.47,2.16
50671,-0.90,1.75,1.77
50690,-0.82,2.26,1.28
50708,-0.53,3.01,0.73
50727,0.12,3.93,-0.16
50745,1.35,4.00,-1.66
50764,3.17,4.00,-3.72
50782,4.00,4.00,-4.00
50801,3.61,4.00,-4.00
50819,1.59,4.00,-4.00
50838,-0.12,3.92,-4.00
50856,-0.69,3.65,-4.00
50875,-0.62,2.90,-1.77
50893,-0.86,1.77,-1.10
50912,-1.16,1.05,-1.04
50930,-1.11,0.30,-1.43
50949,-0.44,0.15,-1.29
50967,0.32,0.05,-1.15
50986,0.82,0.04,-1.09
51004,1.16,-0.02,-0.93
51023,1.36,0.01,-0.95
51041,1.38,0.08,-0.93
51060,1.30,-0.06,-0.56
51078,1.04,-0.04,-0.54
51097,0.68,-0.00,-0.28
51115,0.34,-0.08,-0.31
51134,-0.01,0.04,-0.22
51152,-0.22,-0.05,-0.09
51171,-0.37,-0.12,-0.20
51189,-0.50,-0.14,-0.13
51208,-0.61,-0.21,-0.07
51226,-0.72,-0.29,-0.03
51245,-0.80,-0.37,0.05
51263,-0.85,-0.43,0.20
51282,-0.84,-0.52,0.31
51300,-0.73,-0.62,0.46
51319,-0.56,-0.72,0.54
51337,-0.38,-0.79,0.55
51356,-0.24,-0.84,0.55
51374,-0.15,-0.88,0.50
51393,-0.13,-0.92,0.38
51411,-0.17,-0.91,0.31
51430,-0.25,-0.92,0.24
51448,-0.29,-0.92,0.24
51467,-0.26,-0.93,0.23
51485,-0.18,-0.94,0.20
51504,-0.09,-0.94,0.12
51522,-0.04,-0.93,-0.03
51541,-0.02,-0.94,-0.19
51559,-0.02,-0.95,-0.25
51578,-0.06,-0.95,-0.24
51596,-0.14,-0.94,-0.21
51615,-0.19,-0.97,-0.19
51633,-0.17,-0.97,-0.17
51652,-0.11,-0.98,-0.17
51670,-0.08,-0.97,-0.21
51689,-0.06,-0.97,-0.28
51707,-0.03,-0.97,-0.33
51726,-0.03,-0.97,-0.38
51744,-0.05,-0.96,-0.42
51763,-0.08,-0.96,-0.44
51781,-0.08,-0.95,-0.42
51800,-0.07,-0.95,-0.40
51818,-0.05,-0.95,-0.40
51837,-0.03,-0.95,-0.39
51855,-0.01,-0.95,-0.39
51874,-0.03,-0.93,-0.38
51892,-0.06,-0.94,-0.39
51911,-0.07,-0.93,-0.39
51929,-0.05,-0.94,-0.34
51948,-0.03,-0.94,-0.28
51966,-0.03,-0.93,-0.26
51985,-0.06,-0.93,-0.23
52003,-0.08,-0.94,-0.23
52022,-0.08,-0.94,-0.24
52040,-0.06,-0.93,-0.23
52059,-0.07,-0.94,-0.25
52077,-0.06,-0.93,-0.28
52096,-0.03,-0.94,-0.31
52114,0.01,-0.95,-0.33
52133,0.06,-0.96,-0.35
52151,0.09,-0.97,-0.32
52170,0.07,-0.96,-0.28
52188,-0.02,-0.95,-0.24
52207,-0.12,-0.93,-0.24
52225,-0.18,-0.94,-0.21
52244,-0.17,-0.95,-0.18
52262,-0.12,-0.96,-0.25
52281,-0.02,-0.99,-0.37
52299,0.04,-1.00,-0.47
52318,0.09,-1.01,-0.54
52336,0.12,-1.03,-0.59
52355,0.14,-1.05,-0.66
52373,0.15,-1.04,-0.75
52392,0.17,-1.10,-0.83
52410,0.21,-1.09,-0.90
52429,0.26,-1.07,-0.95
52447,0.29,-1.05,-1.00
52466,0.30,-1.00,-1.06
52484,0.26,-0.95,-1.10
52503,0.18,-0.89,-1.08
52521,0.09,-0.82,-0.97
52540,0.05,-0.76,-0.78
52558,0.02,-0.69,-0.56
52577,-0.04,-0.59,-0.30
52595,-0.13,-0.49,-0.04
52614,-0.26,-0.39,0.18
52632,-0.36,-0.29,0.44
52651,-0.46,-0.22,0.63
52669,-0.57,-0.12,0.93
52688,-0.66,-0.02,1.21
52706,-0.79,0.05,1.59
52725,-0.97,0.14,1.92
52743,-1.19,0.19,2.15
52762,-1.41,0.27,2.27
52780,-1.57,0.33,2.32
52799,-1.60,0.36,2.33
52817,-1.37,0.39,2.38
52836,-0.95,0.45,2.46
52854,-0.55,0.56,2.48
52873,-0.28,0.73,2.33
52891,-0.11,0.94,2.07
52910,-0.08,1.35,1.71
52928,-0.25,2.00,1.06
52947,-0.33,2.74,0.14
52965,0.06,3.31,-1.33
52984,0.91,4.00,-3.27
53002,1.78,4.00,-4.00
53021,1.73,4.00,-4.00
53039,0.74,4.00,-4.00
53058,-0.52,3.70,-4.00
53076,-1.06,3.45,-4.00
53095,-1.09,2.82,-3.46
53113,-1.05,1.97,-2.48
53132,-0.84,1.24,-2.19
53150,-0.29,0.81,-1.91
53169,0.37,0.81,-1.83
53187,0.93,0.56,-1.40
53206,1.25,0.45,-1.29
53224,1.26,0.57,-0.89
53243,1.04,0.59,-0.50
53261,0.68,0.69,-0.11
53280,0.40,0.79,0.48
53298,0.20,0.80,0.82
53317,0.02,0.84,1.19
53335,-0.29,0.93,1.51
53354,-0.59,1.01,1.89
53372,-0.91,1.00,2.24
53391,-1.33,1.07,2.28
53409,-1.80,1.16,2.35
53428,-2.26,1.19,2.55
53446,-2.72,1.23,2.55
53465,-2.82,1.17,2.48
53483,-2.43,1.08,2.45
53502,-1.71,0.99,2.39
53520,-0.98,0.88,2.26
53539,-0.48,0.87,2.19
53557,-0.28,0.95,2.03
53576,-0.28,1.13,1.83
53594,-0.39,1.49,1.55
53613,-0.44,2.06,1.09
53631,-0.18,2.67,0.31
53650,0.44,3.31,-0.77
53668,1.33,4.00,-2.25
53687,2.27,4.00,-4.00
53705,2.59,4.00,-4.00
53724,1.82,4.00,-4.00
53742,0.41,3.82,-4.00
53761,-0.67,3.50,-4.00
53779,-0.99,3.12,-3.93
53798,-0.96,2.44,-2.26
53816,-1.02,1.63,-1.82
53835,-1.01,0.99,-1.81
53853,-0.62,0.71,-1.73
53872,0.13,0.56,-1.86
53890,0.82,0.47,-1.82
53909,1.23,0.46,-1.85
53927,1.41,0.37,-1.58
53946,1.40,0.05,-1.07
53964,1.27,0.28,-1.00
53983,0.91,0.31,-0.67
54001,0.42,0.49,-0.50
54020,0.10,0.42,-0.19
54038,-0.14,0.28,-0.16
54057,-0.24,0.23,0.20
54075,-0.27,0.14,0.47
54094,-0.32,0.02,0.57
54112,-0.41,-0.07,0.67
54131,-0.49,-0.17,0.71
54149,-0.56,-0.28,0.77
54168,-0.60,-0.36,0.86
54186,-0.65,-0.43,0.79
54205,-0.70,-0.49,0.83
54223,-0.69,-0.59,0.88
54242,-0.63,-0.66,0.81
54260,-0.52,-0.74,0.78
54279,-0.41,-0.80,0.77
54297,-0.35,-0.83,0.69
54316,-0.35,-0.84,0.59
54334,-0.34,-0.87,0.42
54353,-0.31,-0.87,0.25
54371,-0.25,-0.89,0.17
54390,-0.21,-0.92,0.11
54408,-0.16,-0.94,0.11
54427,-0.14,-0.96,0.12
54445,-0.15,-0.94,0.11
54464,-0.21,-0.93,0.08
54482,-0.26,-0.94,-0.01
54501,-0.23,-0.95,-0.03
54519,-0.18,-0.95,-0.04
54538,-0.16,-0.94,-0.09
54556,-0.18,-0.95,-0.14
54575,-0.22,-0.95,-0.23
54593,-0.23,-0.95,-0.27
54612,-0.23,-0.94,-0.28
54630,-0.23,-0.94,-0.28
54649,-0.21,-0.95,-0.32
54667,-0.16,-0.97,-0.37
54686,-0.10,-0.98,-0.38
54704,-0.07,-0.99,-0.34
54723,-0.07,-1.00,-0.29
54741,-0.09,-1.01,-0.22
54760,-0.12,-1.01,-0.15
54778,-0.15,-1.00,-0.12
54797,-0.17,-1.00,-0.13
54815,-0.14,-1.00,-0.14
54834,-0.10,-1.01,-0.13
54852,-0.05,-1.01,-0.12
54871,-0.03,-1.01,-0.10
54889,-0.02,-1.00,-0.08
54908,-0.05,-0.99,-0.09
54926,-0.08,-0.98,-0.09
54945,-0.11,-0.97,-0.09
54963,-0.13,-0.96,-0.10
54982,-0.14,-0.95,-0.10
55000,-0.14,-0.96,-0.12
55019,-0.11,-0.96,-0.13
55037,-0.09,-0.96,-0.14
55056,-0.10,-0.97,-0.15
55074,-0.11,-0.97,-0.13
55093,-0.11,-0.98,-0.12
55111,-0.11,-1.00,-0.11
55130,-0.09,-1.01,-0.11
55148,-0.11,-1.02,-0.13
55167,-0.14,-1.02,-0.15
55185,-0.17,-1.01,-0.18
55204,-0.18,-1.02,-0.22
55222,-0.16,-1.02,-0.24
55241,-0.11,-1.04,-0.26
55259,-0.07,-1.04,-0.28
55278,-0.05,-1.03,-0.34
55296,-0.04,-1.04,-0.40
55315,-0.04,-1.01,-0.45
55333,-0.05,-0.99,-0.48
55352,-0.07,-0.96,-0.44
55370,-0.12,-0.93,-0.37
55389,-0.17,-0.90,-0.29
55407,-0.22,-0.87,-0.22
55426,-0.24,-0.83,-0.16
55444,-0.22,-0.81,-0.09
55463,-0.17,-0.75,0.01
55481,-0.18,-0.68,0.14
55500,-0.23,-0.59,0.29
55518,-0.31,-0.49,0.50
55537,-0.41,-0.38,0.74
55555,-0.52,-0.32,1.05
55574,-0.56,-0.25,1.36
55592,-0.66,-0.15,1.61
55611,-0.76,-0.12,1.86
55629,-0.84,-0.07,2.14
55648,-0.90,0.06,2.33
55666,-0.94,0.21,2.42
55685,-0.94,0.37,2.43
55703,-0.88,0.53,2.34
55722,-0.73,0.67,2.13
55740,-0.63,0.91,1.85
55759,-0.58,1.22,1.50
55777,-0.46,1.69,0.92
55796,-0.05,2.13,0.10
55814,0.66,2.60,-1.14
55833,1.53,3.46,-2.99
55851,1.99,4.00,-4.00
55870,1.59,4.00,-4.00
55888,0.30,4.00,-4.00
55907,-0.95,3.67,-4.00
55925,-1.37,3.32,-4.00
55944,-1.16,2.57,-3.88
55962,-0.82,1.74,-2.36
55981,-0.50,1.03,-1.89
55999,-0.10,0.66,-1.64
56018,0.37,0.36,-1.51
56036,0.73,0.03,-1.22
56055,0.99,0.28,-1.34
56073,1.03,0.49,-0.89
56092,0.90,0.47,-0.35
56110,0.63,0.54,-0.11
56129,0.33,0.77,0.35
56147,0.19,0.76,1.02
56166,0.06,0.77,1.02
56184,-0.21,0.90,1.20
56203,-0.49,1.00,1.54
56221,-0.77,1.16,1.91
56240,-1.14,1.18,2.13
56258,-1.64,1.30,2.23
56277,-2.24,1.36,2.43
56295,-2.86,1.32,2.69
56314,-3.22,1.37,2.59
56332,-3.04,1.34,2.62
56351,-2.32,1.30,2.49
56369,-1.43,1.27,2.21
56388,-0.78,1.24,2.03
56406,-0.48,1.28,1.97
56425,-0.41,1.39,1.85
56443,-0.46,1.85,1.58
56462,-0.45,2.48,1.03
56480,-0.10,3.17,0.15
56499,0.72,3.83,-1.03
56517,1.83,4.00,-2.76
56536,2.74,4.00,-4.00
56554,2.66,4.00,-4.00
56573,1.73,4.00,-4.00
56591,0.37,3.98,-4.00
56610,-0.41,3.45,-4.00
56628,-0.53,2.94,-3.18
56647,-0.50,2.03,-1.16
56665,-0.66,1.11,-0.96
56684,-0.78,0.49,-1.01
56702,-0.53,0.16,-1.05
56721,0.17,-0.04,-1.09
56739,0.82,-0.00,-1.26
56758,1.20,-0.02,-1.31
56776,1.35,0.07,-1.37
56795,1.32,0.13,-1.36
56813,1.15,0.22,-1.24
56832,0.93,0.23,-0.97
56850,0.59,0.32,-0.99
56869,0.26,0.25,-0.82
56887,-0.04,0.29,-0.85
56906,-0.28,0.35,-0.50
56924,-0.36,0.21,-0.12
56943,-0.40,0.06,-0.04
56961,-0.46,-0.04,0.14
56980,-0.50,-0.12,0.32
56998,-0.52,-0.20,0.47
57017,-0.52,-0.27,0.60
57035,-0.50,-0.38,0.74
57054,-0.51,-0.42,0.68
57072,-0.51,-0.49,0.78
57091,-0.49,-0.57,0.82
57109,-0.44,-0.64,0.82
57128,-0.36,-0.72,0.94
57146,-0.27,-0.78,1.00
57165,-0.21,-0.81,1.03
57183,-0.21,-0.81,0.99
57202,-0.27,-0.80,0.90
57220,-0.37,-0.79,0.75
57239,-0.45,-0.79,0.57
57257,-0.47,-0.82,0.48
57276,-0.42,-0.84,0.46
57294,-0.33,-0.88,0.42
57313,-0.22,-0.92,0.35
57331,-0.11,-0.94,0.23
57350,-0.07,-0.95,0.10
57368,-0.08,-0.96,-0.03
57387,-0.10,-0.98,-0.14
57405,-0.12,-0.99,-0.23
57424,-0.12,-1.00,-0.28
57442,-0.13,-1.00,-0.31
57461,-0.14,-1.01,-0.35
57479,-0.15,-1.01,-0.40
57498,-0.17,-0.99,-0.42
57516,-0.19,-0.98,-0.41
57535,-0.21,-0.99,-0.37
57553,-0.19,-1.00,-0.30
57572,-0.16,-1.00,-0.23
57590,-0.12,-1.00,-0.18
57609,-0.10,-1.00,-0.12
57627,-0.09,-1.00,-0.09
57646,-0.09,-0.99,-0.07
57664,-0.08,-1.00,-0.05
57683,-0.06,-1.00,-0.05
57701,-0.05,-0.99,-0.03
57720,-0.09,-0.99,-0.02
57738,-0.15,-0.98,-0.02
57757,-0.18,-0.97,-0.04
57775,-0.17,-0.97,-0.04
57794,-0.13,-0.97,-0.05
57812,-0.10,-0.97,-0.07
57831,-0.08,-0.97,-0.06
57849,-0.09,-0.98,-0.05
57868,-0.11,-0.98,-0.02
57886,-0.14,-0.98,-0.02
57905,-0.15,-0.98,-0.01
57923,-0.17,-0.98,-0.05
57942,-0.16,-0.98,-0.10
57960,-0.14,-0.99,-0.15
57979,-0.10,-1.00,-0.16
57997,-0.06,-1.01,-0.16
58016,-0.04,-1.02,-0.13
58034,-0.05,-1.03,-0.12
58053,-0.07,-1.03,-0.14
58071,-0.08,-1.04,-0.18
58090,-0.07,-1.05,-0.22
58108,-0.06,-1.05,-0.24
58127,-0.04,-1.06,-0.25
58145,-0.03,-1.06,-0.25
58164,-0.05,-1.05,-0.26
58182,-0.07,-1.04,-0.24
58201,-0.08,-1.03,-0.25
58219,-0.06,-1.02,-0.24
58238,-0.07,-1.00,-0.21
58256,-0.10,-0.97,-0.17
58275,-0.14,-0.95,-0.13
58293,-0.17,-0.91,-0.08
58312,-0.18,-0.88,-0.07
58330,-0.15,-0.84,-0.04
58349,-0.09,-0.80,0.05
58367,-0.03,-0.69,0.24
58386,0.01,-0.61,0.55
58404,-0.03,-0.50,0.95
58423,-0.15,-0.41,1.28
58441,-0.35,-0.32,1.47
58460,-0.53,-0.20,1.64
58478,-0.68,-0.09,1.84
58497,-0.81,0.02,2.01
58515,-0.92,0.12,2.13
58534,-0.98,0.22,2.19
58552,-0.97,0.34,2.12
58571,-0.87,0.46,1.97
58589,-0.68,0.53,1.78
58608,-0.45,0.66,1.68
58626,-0.27,0.81,1.54
58645,-0.19,0.99,1.36
58663,-0.21,1.32,1.04
58682,-0.14,1.75,0.45
58700,0.20,2.14,-0.52
58719,0.78,2.77,-1.87
58737,1.37,3.64,-3.60
58756,1.38,3.99,-4.00
58774,0.70,3.94,-4.00
58793,-0.50,3.51,-4.00
58811,-1.42,3.21,-4.00
58830,-1.80,2.90,-4.00
58848,-1.75,2.30,-3.34
58867,-1.65,1.73,-2.92
58885,-1.30,1.28,-2.80
58904,-0.54,0.94,-2.51
58922,0.22,0.75,-2.16
58941,0.68,0.58,-1.70
58959,0.93,0.21,-1.13
58978,1.03,0.34,-1.09
58996,0.96,0.40,-0.71
59015,0.78,0.39,-0.34
59033,0.53,0.47,-0.11
59052,0.28,0.60,0.43
59070,0.09,0.56,1.04
59089,-0.09,0.56,1.17
59107,-0.44,0.64,1.47
59126,-0.79,0.70,1.76
59144,-1.07,0.72,2.04
59163,-1.31,0.76,2.31
59181,-1.59,0.81,2.35
59200,-1.85,0.83,2.41
59218,-2.04,0.81,2.55
59237,-2.13,0.77,2.45
59255,-1.99,0.75,2.35
59274,-1.62,0.75,2.30
59292,-1.13,0.77,2.21
59311,-0.72,0.82,2.01
59329,-0.46,0.90,1.75
59348,-0.35,1.06,1.44
59366,-0.30,1.32,1.20
59385,-0.19,1.77,0.80
59403,0.14,2.28,0.18
59422,0.81,2.92,-0.81
59440,1.69,3.74,-2.68
59459,2.30,4.00,-4.00
59477,1.88,4.00,-4.00
59496,0.52,4.00,-4.00
59514,-0.79,3.65,-4.00
59533,-1.33,3.28,-4.00
59551,-1.04,2.59,-3.14
59570,-0.80,1.83,-1.70
59588,-0.77,1.09,-1.43
59607,-0.66,0.66,-1.57
59625,-0.14,0.43,-1.79
59644,0.53,0.36,-1.97
59662,1.03,0.46,-2.00
59681,1.33,0.33,-1.88
59699,1.47,0.58,-2.03
59718,1.34,0.66,-1.77
59736,0.96,0.88,-1.51
59755,0.50,0.74,-0.96
59773,0.14,0.89,-0.85
59792,-0.14,0.77,-0.43
59810,-0.27,0.68,-0.19
59829,-0.38,0.51,-0.11
59847,-0.40,0.57,0.40
59866,-0.32,0.31,0.84
59884,-0.32,0.15,0.75
59903,-0.45,0.12,0.75
59921,-0.56,0.03,0.96
59940,-0.62,-0.07,1.02
59958,-0.66,-0.18,1.00
59977,-0.71,-0.25,1.08
59995,-0.74,-0.33,1.14
60014,-0.78,-0.37,1.17
60032,-0.80,-0.42,1.13
60051,-0.79,-0.50,1.10
60069,-0.76,-0.54,0.98
60088,-0.69,-0.59,0.91
60106,-0.59,-0.65,0.78
60125,-0.46,-0.70,0.70
60143,-0.36,-0.74,0.68
60162,-0.34,-0.78,0.63
60180,-0.34,-0.83,0.59
60199,-0.36,-0.86,0.58
60217,-0.40,-0.88,0.53
60236,-0.40,-0.93,0.46
60254,-0.36,-0.95,0.41
60273,-0.31,-0.96,0.35
60291,-0.28,-0.96,0.28
60310,-0.24,-0.98,0.10
60328,-0.19,-0.99,-0.01
60347,-0.15,-1.01,-0.05
60365,-0.16,-1.01,-0.07
60384,-0.20,-1.01,-0.11
60402,-0.25,-1.00,-0.13
60421,-0.29,-0.97,-0.19
60439,-0.30,-0.97,-0.15
60458,-0.29,-0.96,-0.15
60476,-0.27,-0.96,-0.15
60495,-0.25,-0.97,-0.13
60513,-0.23,-0.97,-0.03
60532,-0.23,-0.97,0.06
60550,-0.24,-0.97,0.11
60569,-0.24,-0.98,0.14
60587,-0.22,-0.98,0.17
60606,-0.19,-0.97,0.17
60624,-0.18,-0.97,0.18
60643,-0.20,-0.96,0.14
60661,-0.21,-0.97,0.11
60680,-0.21,-0.96,0.09
60698,-0.22,-0.95,0.10
60717,-0.22,-0.96,0.11
60735,-0.21,-0.97,0.14
60754,-0.19,-0.97,0.17
60772,-0.18,-0.98,0.20
60791,-0.18,-0.98,0.22
60809,-0.21,-0.97,0.19
60828,-0.24,-0.98,0.15
60846,-0.23,-0.98,0.09
60865,-0.20,-0.99,0.07
60883,-0.17,-1.00,0.05
60902,-0.17,-1.01,0.05
60920,-0.17,-1.00,0.05
60939,-0.18,-0.99,0.08
60957,-0.20,-0.99,0.09
60976,-0.21,-0.97,0.10
60994,-0.21,-0.96,0.13
61013,-0.21,-0.94,0.15
61031,-0.22,-0.91,0.18
61050,-0.24,-0.89,0.22
61068,-0.27,-0.85,0.28
61087,-0.29,-0.80,0.35
61105,-0.30,-0.75,0.45
61124,-0.31,-0.68,0.57
61142,-0.31,-0.61,0.70
61161,-0.33,-0.53,0.87
61179,-0.36,-0.44,1.03
61198,-0.44,-0.35,1.15
61216,-0.54,-0.26,1.29
61235,-0.65,-0.17,1.36
61253,-0.73,-0.11,1.45
61272,-0.75,-0.05,1.51
61290,-0.70,-0.00,1.59
61309,-0.63,0.08,1.62
61327,-0.54,0.17,1.59
61346,-0.43,0.25,1.52
61364,-0.32,0.36,1.44
61383,-0.26,0.47,1.37
61401,-0.25,0.64,1.36
61420,-0.34,0.96,1.24
61438,-0.47,1.36,0.97
61457,-0.52,1.95,0.61
61475,-0.29,2.61,-0.19
61494,0.30,3.06,-1.52
61512,1.05,4.00,-3.00
61531,1.17,4.00,-4.00
61549,0.53,4.00,-4.00
61568,-0.61,4.00,-4.00
61586,-1.50,3.60,-4.00
61605,-1.66,3.24,-4.00
61623,-1.45,2.65,-3.12
61642,-1.23,1.96,-2.30
61660,-1.07,1.39,-2.28
61679,-0.66,1.09,-2.41
61697,-0.07,0.88,-2.46
61716,0.44,0.81,-2.16
61734,0.78,0.78,-1.86
61753,0.87,0.73,-1.41
61771,0.77,0.49,-0.56
61790,0.57,0.61,-0.49
61808,0.32,0.74,-0.19
61827,0.14,0.68,0.25
61845,0.01,0.71,0.42
61864,-0.01,0.78,1.05
61882,-0.08,0.64,1.49
61901,-0.32,0.69,1.49
61919,-0.70,0.75,1.70
61938,-1.11,0.79,1.89
61956,-1.47,0.83,1.94
61975,-1.78,0.84,2.07
61993,-2.08,0.87,2.06
62012,-2.30,0.86,2.18
62030,-2.37,0.81,2.19
62049,-2.22,0.78,2.09
62067,-1.81,0.77,2.00
62086,-1.31,0.75,1.88
62104,-0.95,0.76,1.75
62123,-0.76,0.82,1.64
62141,-0.71,1.00,1.44
62160,-0.68,1.33,1.11
62178,-0.53,1.75,0.65
62197,-0.13,2.27,-0.01
62215,0.56,2.70,-1.05
62234,1.53,3.50,-2.59
62252,2.37,4.00,-4.00
62271,2.26,4.00,-4.00
62289,1.46,4.00,-4.00
62308,0.51,3.26,-4.00
62326,-0.28,2.93,-4.00
62345,-0.47,2.43,-3.69
62363,-0.41,1.82,-2.12
62382,-0.49,1.13,-1.58
62400,-0.60,0.65,-1.64
62419,-0.45,0.41,-1.77
62437,0.09,0.45,-1.83
62456,0.72,0.30,-1.79
62474,1.10,0.33,-1.77
62493,1.13,0.32,-1.50
62511,1.02,0.38,-1.34
62530,0.83,0.45,-1.14
62548,0.65,0.40,-0.91
62567,0.43,0.37,-0.53
62585,0.26,0.25,-0.14
62604,0.08,0.08,0.01
62622,-0.08,0.27,0.34
62641,-0.11,0.07,0.96
62659,-0.11,-0.19,0.92
62678,-0.26,-0.22,0.65
62696,-0.44,-0.23,0.63
62715,-0.54,-0.27,0.53
62733,-0.55,-0.35,0.53
62752,-0.53,-0.44,0.48
62770,-0.52,-0.49,0.59
62789,-0.50,-0.55,0.76
62807,-0.48,-0.60,0.77
62826,-0.51,-0.64,0.73
62844,-0.54,-0.68,0.69
62863,-0.56,-0.72,0.59
62881,-0.54,-0.74,0.53
62900,-0.51,-0.78,0.48
62918,-0.44,-0.82,0.44
62937,-0.36,-0.85,0.39
62955,-0.33,-0.86,0.36
62974,-0.33,-0.90,0.33
62992,-0.33,-0.94,0.27
63011,-0.28,-0.96,0.26
63029,-0.22,-0.99,0.23
63048,-0.14,-1.02,0.14
63066,-0.07,-1.02,0.04
63085,-0.03,-1.01,-0.06
63103,-0.04,-1.00,-0.19
63122,-0.09,-0.99,-0.30
63140,-0.16,-0.97,-0.37
63159,-0.20,-0.96,-0.37
63177,-0.22,-0.96,-0.37
63196,-0.20,-0.97,-0.38
63214,-0.17,-0.97,-0.36
63233,-0.13,-0.99,-0.35
63251,-0.08,-1.00,-0.29
63270,-0.06,-1.01,-0.20
63288,-0.07,-1.00,-0.11
63307,-0.09,-1.00,-0.06
63325,-0.12,-0.98,-0.05
63344,-0.15,-0.97,-0.07
63362,-0.17,-0.97,-0.09
63381,-0.18,-0.96,-0.12
63399,-0.18,-0.96,-0.15
63418,-0.18,-0.96,-0.15
63436,-0.17,-0.96,-0.15
63455,-0.16,-0.97,-0.14
63473,-0.15,-0.96,-0.12
63492,-0.16,-0.96,-0.08
63510,-0.18,-0.96,-0.07
63529,-0.18,-0.97,-0.08
63547,-0.15,-0.97,-0.10
63566,-0.13,-0.97,-0.12
63584,-0.12,-0.97,-0.12
63603,-0.13,-0.97,-0.12
63621,-0.15,-0.97,-0.12
63640,-0.16,-0.97,-0.13
63658,-0.15,-0.97,-0.14
63677,-0.10,-1.00,-0.18
63695,-0.05,-1.01,-0.21
63714,-0.04,-1.01,-0.23
63732,-0.06,-1.03,-0.25
63751,-0.10,-1.02,-0.25
63769,-0.11,-1.03,-0.26
63788,-0.10,-1.04,-0.29
63806,-0.09,-1.04,-0.31
63825,-0.08,-1.03,-0.34
63843,-0.09,-1.03,-0.38
63862,-0.08,-1.02,-0.42
63880,-0.06,-1.02,-0.44
63899,-0.03,-1.01,-0.43
63917,-0.03,-1.00,-0.40
63936,-0.05,-0.98,-0.36
63954,-0.09,-0.96,-0.30
63973,-0.11,-0.94,-0.21
63991,-0.13,-0.92,-0.08
64010,-0.13,-0.89,0.07
64028,-0.13,-0.84,0.20
64047,-0.13,-0.77,0.35
64065,-0.11,-0.67,0.53
64084,-0.13,-0.57,0.70
64102,-0.21,-0.47,0.89
64121,-0.34,-0.38,1.13
64139,-0.52,-0.26,1.34
64158,-0.70,-0.13,1.53
64176,-0.89,0.00,1.79
64195,-1.09,0.13,1.93
64213,-1.25,0.21,2.05
64232,-1.31,0.29,2.14
64250,-1.21,0.37,2.15
64269,-0.95,0.47,2.06
64287,-0.58,0.58,1.90
64306,-0.24,0.70,1.73
64324,-0.04,0.91,1.57
64343,0.03,1.16,1.31
64361,0.01,1.65,0.99
64380,0.04,2.18,0.31
64398,0.27,2.74,-0.69
64417,0.72,3.45,-2.18
64435,1.29,4.00,-3.79
64454,1.22,4.00,-4.00
64472,0.16,4.00,-4.00
64491,-1.12,3.97,-4.00
64509,-1.83,3.58,-4.00
64528,-1.86,3.02,-4.00
64546,-1.52,2.32,-3.03
64565,-1.24,1.60,-2.48
64583,-0.75,1.08,-2.35
64602,-0.03,0.79,-2.30
64620,0.60,0.58,-2.04
64639,1.06,0.54,-1.90
64657,1.24,0.53,-1.58
64676,1.17,0.28,-0.91
64694,0.90,0.47,-0.84
64713,0.52,0.64,-0.63
64731,0.24,0.62,-0.27
64750,0.05,0.59,-0.08
64768,-0.04,0.66,0.49
64787,0.03,0.55,1.05
64805,-0.09,0.63,1.10
64824,-0.35,0.72,1.43
64842,-0.69,0.79,1.76
64861,-1.05,0.85,2.04
64879,-1.47,0.89,2.17
64898,-1.95,0.97,2.11
64916,-2.41,1.02,2.21
64935,-2.77,1.00,2.14
64953,-2.90,1.00,2.05
64972,-2.70,0.97,1.97
64990,-2.16,0.96,1.94
65009,-1.48,0.94,1.82
65027,-0.93,0.91,1.63
65046,-0.54,0.88,1.38
65064,-0.24,0.97,1.07
65083,0.02,1.21,0.74
65101,0.27,1.65,0.32
65120,0.63,2.12,-0.36
65138,1.19,2.69,-1.46
65157,1.90,3.42,-2.99
65175,2.40,4.00,-4.00
65194,2.09,4.00,-4.00
65212,1.17,3.79,-4.00
65231,0.06,3.09,-4.00
65249,-0.60,2.91,-4.00
65268,-0.73,2.47,-2.90
65286,-0.76,1.97,-1.82
65305,-0.87,1.33,-1.65
65323,-0.89,0.86,-1.71
65342,-0.57,0.47,-1.66
65360,0.04,0.36,-1.52
65379,0.60,0.29,-1.31
65397,1.03,0.30,-1.28
65416,1.21,0.49,-1.19
65434,1.29,0.30,-1.02
65453,1.17,0.20,-0.99
65471,0.85,0.35,-0.84
65490,0.52,0.28,-0.76
65508,0.20,0.28,-0.69
65527,-0.04,0.24,-0.51
65545,-0.19,0.25,-0.21
65564,-0.22,0.11,0.07
65582,-0.29,-0.01,0.12
65601,-0.46,-0.08,0.24
65619,-0.60,-0.15,0.40
65638,-0.66,-0.18,0.47
65656,-0.66,-0.33,0.51
65675,-0.68,-0.38,0.43
65693,-0.72,-0.44,0.50
65712,-0.74,-0.49,0.48
65730,-0.75,-0.54,0.42
65749,-0.73,-0.61,0.39
65767,-0.69,-0.66,0.37
65786,-0.64,-0.71,0.37
65804,-0.60,-0.74,0.38
65823,-0.57,-0.78,0.43
65841,-0.55,-0.78,0.41
65860,-0.55,-0.81,0.41
65878,-0.57,-0.81,0.33
65897,-0.59,-0.80,0.29
65915,-0.62,-0.78,0.21
65934,-0.62,-0.81,0.11
65952,-0.60,-0.82,0.06
65971,-0.54,-0.87,0.03
65989,-0.46,-0.91,0.04
66008,-0.37,-0.95,0.07
66026,-0.30,-0.97,0.07
66045,-0.26,-0.97,0.03
66063,-0.23,-0.97,-0.07
66082,-0.22,-0.95,-0.21
66100,-0.19,-0.96,-0.37
66119,-0.14,-0.97,-0.48
66137,-0.09,-0.96,-0.55
66156,-0.06,-0.96,-0.57
66174,-0.05,-0.97,-0.58
66193,-0.06,-0.98,-0.54
66211,-0.10,-0.97,-0.47
66230,-0.14,-0.95,-0.44
66248,-0.17,-0.96,-0.44
66267,-0.17,-0.95,-0.42
66285,-0.16,-0.95,-0.39
66304,-0.17,-0.92,-0.34
66322,-0.19,-0.94,-0.29
66341,-0.21,-0.94,-0.24
66359,-0.23,-0.93,-0.17
66378,-0.25,-0.91,-0.14
66396,-0.27,-0.90,-0.17
66415,-0.26,-0.89,-0.24
66433,-0.24,-0.89,-0.32
66452,-0.19,-0.91,-0.35
66470,-0.14,-0.91,-0.34
66489,-0.12,-0.92,-0.32
66507,-0.14,-0.91,-0.32
66526,-0.18,-0.91,-0.35
66544,-0.21,-0.92,-0.38
66563,-0.22,-0.93,-0.40
66581,-0.19,-0.94,-0.42
66600,-0.14,-0.96,-0.42
66618,-0.10,-0.97,-0.42
66637,-0.09,-0.97,-0.39
66655,-0.11,-0.97,-0.37
66674,-0.15,-0.96,-0.36
66692,-0.18,-0.96,-0.34
66711,-0.20,-0.95,-0.32
66729,-0.21,-0.94,-0.30
66748,-0.21,-0.94,-0.28
66766,-0.22,-0.93,-0.28
66785,-0.22,-0.92,-0.27
66803,-0.22,-0.92,-0.25
66822,-0.20,-0.92,-0.23
66840,-0.15,-0.93,-0.23
66859,-0.08,-0.96,-0.23
66877,-0.03,-0.96,-0.22
66896,-0.02,-0.96,-0.20
66914,-0.06,-0.94,-0.19
66933,-0.14,-0.92,-0.20
66951,-0.23,-0.90,-0.22
66970,-0.28,-0.90,-0.25
66988,-0.28,-0.90,-0.26
