timestamp,AX,AY,AZ
0,-0.02,0.03,-1.03
18,-0.09,0.03,-1.03
37,-0.08,0.01,-0.87
55,-0.14,-0.00,-0.71
74,-0.24,-0.03,-0.62
92,-0.36,-0.03,-0.75
111,-0.50,-0.02,-0.94
129,-0.48,-0.04,-1.00
148,-0.40,-0.07,-0.99
166,-0.32,-0.07,-1.05
185,-0.25,-0.05,-1.06
203,-0.23,0.01,-0.86
222,-0.24,0.01,-0.58
240,-0.41,-0.02,-0.46
259,-0.57,-0.07,-0.61
277,-0.61,-0.09,-0.86
296,-0.50,-0.11,-0.96
314,-0.44,-0.10,-0.94
333,-0.56,-0.06,-1.04
351,-0.66,-0.07,-1.13
370,-0.61,-0.06,-1.06
388,-0.61,-0.08,-0.88
407,-0.61,-0.09,-0.75
425,-0.50,-0.14,-0.77
444,-0.41,-0.15,-0.87
462,-0.24,-0.16,-0.99
481,-0.05,-0.16,-1.02
499,-0.11,-0.01,-1.07
518,-0.07,-0.30,-1.28
536,-0.22,-0.11,-0.98
555,-0.28,-0.10,-0.84
573,-0.43,-0.07,-0.90
592,-0.64,-0.07,-0.78
610,-0.84,-0.15,-1.02
629,-0.47,-0.14,-0.96
647,-0.23,-0.12,-0.95
666,0.02,-0.11,-0.92
684,-0.01,-0.09,-0.98
703,-0.29,-0.02,-1.02
721,-0.59,0.04,-0.93
740,-0.83,0.08,-0.75
758,-0.86,0.04,-0.64
777,-0.69,0.04,-0.69
795,-0.55,-0.01,-0.83
814,-0.57,-0.01,-0.82
832,-0.65,-0.01,-0.79
851,-0.67,-0.02,-0.75
869,-0.65,-0.01,-0.71
888,-0.76,0.04,-0.56
906,-0.81,-0.03,-0.63
925,-0.83,-0.04,-0.72
943,-0.89,-0.00,-0.60
962,-0.97,-0.02,-0.51
980,-0.97,-0.02,-0.53
999,-0.91,-0.07,-0.57
1017,-0.83,-0.05,-0.60
1036,-0.83,-0.09,-0.62
1054,-0.80,-0.11,-0.68
1073,-0.74,-0.10,-0.72
1091,-0.85,-0.09,-0.67
1110,-0.90,-0.08,-0.70
1128,-0.83,-0.11,-0.71
1147,-0.75,-0.13,-0.71
1165,-0.75,-0.13,-0.72
1184,-0.77,-0.12,-0.69
1202,-0.74,-0.14,-0.68
1221,-0.66,-0.15,-0.68
1239,-0.64,-0.16,-0.67
1258,-0.67,-0.15,-0.63
1276,-0.66,-0.16,-0.64
1295,-0.71,-0.21,-0.67
1313,-0.69,-0.18,-0.72
1332,-0.75,-0.13,-0.68
1350,-0.77,-0.14,-0.66
1369,-0.64,-0.17,-0.76
1387,-0.58,-0.18,-0.74
1406,-0.66,-0.16,-0.68
1424,-0.70,-0.15,-0.66
1443,-0.61,-0.18,-0.72
1461,-0.65,-0.17,-0.73
1480,-0.70,-0.16,-0.72
1498,-0.76,-0.15,-0.69
1517,-0.80,-0.12,-0.68
1535,-0.83,-0.11,-0.66
1554,-0.82,-0.10,-0.62
1572,-0.76,-0.11,-0.66
1591,-0.73,-0.12,-0.71
1609,-0.80,-0.11,-0.68
1628,-0.82,-0.10,-0.71
1646,-0.73,-0.12,-0.73
1665,-0.74,-0.12,-0.71
1683,-0.72,-0.13,-0.72
1702,-0.67,-0.12,-0.72
1720,-0.63,-0.14,-0.73
1739,-0.64,-0.14,-0.75
1757,-0.73,-0.11,-0.74
1776,-0.77,-0.09,-0.73
1794,-0.80,-0.08,-0.75
1813,-0.84,-0.07,-0.73
1831,-0.77,-0.06,-0.66
1850,-0.71,-0.06,-0.64
1868,-0.78,-0.04,-0.64
1887,-0.77,-0.04,-0.68
1905,-0.82,-0.03,-0.73
1924,-0.79,-0.03,-0.74
1942,-0.74,-0.02,-0.78
1961,-0.75,-0.02,-0.79
1979,-0.80,0.01,-0.78
1998,-0.77,0.03,-0.74
2016,-0.73,-0.01,-0.77
2035,-0.72,0.04,-0.76
2053,-0.76,0.03,-0.79
2072,-0.70,0.01,-0.82
2090,-0.66,0.03,-0.79
2109,-0.64,0.03,-0.83
2127,-0.72,0.03,-0.76
2146,-0.75,0.04,-0.77
2164,-0.76,0.06,-0.80
2183,-0.70,0.08,-0.84
2201,-0.57,0.08,-0.85
2220,-0.45,0.07,-0.94
2238,-0.38,0.05,-1.01
2257,-0.34,0.03,-0.99
2275,-0.40,0.04,-0.91
2294,-0.46,0.05,-0.87
2312,-0.45,0.05,-0.80
2331,-0.44,0.07,-0.78
2349,-0.40,0.09,-0.92
2368,-0.21,0.06,-0.95
2386,-0.19,0.04,-1.00
2405,-0.25,0.05,-0.86
2423,-0.26,0.05,-0.85
2442,-0.23,0.07,-0.87
2460,-0.14,0.06,-0.90
2479,-0.11,0.07,-0.91
2497,-0.09,-0.03,-1.02
2516,-0.03,0.04,-1.03
2534,-0.13,0.06,-0.93
2553,-0.08,0.04,-0.87
2571,0.02,0.02,-0.94
2590,0.11,0.02,-0.97
2608,0.14,0.01,-0.99
2627,0.06,0.02,-1.01
2645,0.05,0.02,-0.99
2664,0.09,0.01,-0.92
2682,0.05,0.02,-0.94
2701,0.07,0.01,-0.94
2719,0.08,0.02,-0.96
2738,0.10,0.03,-1.03
2756,0.13,0.02,-1.12
2775,0.11,0.03,-1.09
2793,0.07,0.02,-1.00
2812,0.10,-0.00,-1.02
2830,0.23,-0.03,-1.12
2849,0.27,-0.01,-1.22
2867,0.04,0.01,-1.10
2886,-0.00,0.10,-1.07
2904,-0.06,0.02,-1.14
2923,0.06,0.01,-1.05
2941,-0.03,0.00,-1.07
2960,0.07,-0.02,-1.14
2978,0.11,-0.04,-1.10
2997,0.05,-0.03,-1.16
3015,0.02,-0.04,-1.08
3034,0.01,0.00,-1.07
3052,-0.07,0.00,-1.01
3071,-0.05,-0.01,-1.09
3089,-0.07,-0.01,-1.10
3108,-0.12,0.01,-1.05
3126,-0.11,0.00,-1.03
3145,-0.09,-0.00,-1.07
3163,-0.01,-0.02,-1.07
3182,0.02,-0.02,-1.10
3200,0.03,-0.04,-1.07
3219,-0.02,-0.04,-1.01
3237,-0.09,-0.04,-0.97
3256,-0.13,-0.03,-0.94
3274,-0.13,-0.04,-0.97
3293,-0.10,-0.04,-1.02
3311,-0.14,-0.02,-1.02
3330,-0.09,-0.03,-1.01
3348,-0.10,-0.02,-1.05
3367,-0.10,-0.03,-1.05
3385,-0.09,-0.04,-1.01
3404,-0.12,-0.04,-0.97
3422,-0.17,-0.04,-0.96
3441,-0.19,-0.05,-0.97
3459,-0.12,-0.06,-1.00
3478,-0.15,-0.06,-0.98
3496,-0.17,-0.05,-1.00
3515,-0.16,-0.05,-0.98
3533,-0.11,-0.06,-0.97
3552,-0.15,-0.06,-0.98
3570,-0.14,-0.07,-0.95
3589,-0.13,-0.08,-0.96
3607,-0.17,-0.07,-0.98
3626,-0.13,-0.07,-0.98
3644,-0.09,-0.08,-0.98
3663,-0.11,-0.07,-0.98
3681,-0.11,-0.07,-0.97
3700,-0.11,-0.07,-0.98
3718,-0.11,-0.07,-0.98
3737,-0.06,-0.08,-1.01
3755,-0.07,-0.06,-1.00
3774,-0.10,-0.06,-0.99
3792,-0.10,-0.06,-0.99
3811,-0.07,-0.05,-0.98
3829,-0.08,-0.06,-1.00
3848,-0.09,-0.05,-1.00
3866,-0.03,-0.05,-0.99
3885,-0.03,-0.05,-0.96
3903,-0.03,-0.04,-0.98
3922,-0.05,-0.05,-0.99
3940,-0.03,-0.05,-1.01
3959,-0.02,-0.05,-1.00
3977,-0.00,-0.04,-1.01
3996,0.06,-0.04,-1.04
4014,0.06,-0.02,-1.03
4033,0.04,-0.02,-1.03
4051,0.05,-0.01,-1.07
4070,0.08,-0.00,-1.08
4088,0.10,-0.00,-1.11
4107,0.13,0.00,-1.13
4125,0.15,0.01,-1.11
4144,0.14,0.02,-1.11
4162,0.10,0.03,-1.10
4181,0.07,0.04,-1.10
4199,0.07,0.05,-1.11
4218,0.13,0.04,-1.09
4236,0.08,0.06,-1.08
4255,0.06,0.06,-1.07
4273,0.06,0.06,-1.07
4292,0.06,0.06,-1.05
4310,0.08,0.05,-1.06
4329,0.11,0.04,-1.06
4347,0.09,0.03,-1.07
4366,0.11,0.04,-1.08
4384,0.07,0.05,-1.06
4403,0.05,0.06,-1.05
4421,0.05,0.07,-1.00
4440,0.03,0.06,-1.01
4458,-0.01,0.04,-1.03
4477,-0.06,0.04,-1.01
4495,-0.08,0.03,-1.00
4514,-0.05,0.02,-0.99
4532,-0.06,0.01,-0.96
4551,-0.12,-0.01,-1.01
4569,-0.12,-0.02,-0.97
4588,-0.14,-0.04,-0.93
4606,-0.14,-0.06,-1.00
4625,-0.07,-0.09,-0.94
4643,-0.05,-0.09,-0.84
4662,-0.16,-0.08,-0.86
4680,-0.15,-0.09,-0.92
4699,-0.21,-0.06,-0.92
4717,-0.24,-0.04,-0.94
4736,-0.26,-0.01,-0.92
4754,-0.32,0.00,-0.93
4773,-0.42,0.04,-0.90
4791,-0.41,0.05,-0.84
4810,-0.42,0.05,-0.83
4828,-0.47,0.05,-0.81
4847,-0.51,0.07,-0.73
4865,-0.56,0.06,-0.73
4884,-0.60,0.07,-0.77
4902,-0.68,0.06,-0.83
4921,-0.66,0.04,-0.82
4939,-0.64,0.02,-0.81
4958,-0.58,-0.01,-0.84
4976,-0.61,-0.02,-0.81
4995,-0.61,-0.03,-0.71
5013,-0.61,-0.03,-0.65
5032,-0.75,0.05,-0.62
5050,-0.85,-0.00,-0.65
5069,-0.66,-0.05,-0.78
5087,-0.60,-0.05,-0.77
5106,-0.62,-0.04,-0.67
5124,-0.66,-0.05,-0.76
5143,-0.69,-0.04,-0.82
5161,-0.62,-0.05,-0.79
5180,-0.60,-0.06,-0.80
5198,-0.60,-0.07,-0.80
5217,-0.69,-0.06,-0.80
5235,-0.72,-0.06,-0.74
5254,-0.60,-0.08,-0.78
5272,-0.59,-0.10,-0.76
5291,-0.56,-0.11,-0.83
5309,-0.58,-0.11,-0.86
5328,-0.58,-0.10,-0.78
5346,-0.61,-0.08,-0.71
5365,-0.70,-0.07,-0.70
5383,-0.74,-0.07,-0.72
5402,-0.76,-0.08,-0.79
5420,-0.71,-0.09,-0.78
5439,-0.64,-0.11,-0.80
5457,-0.59,-0.12,-0.84
5476,-0.59,-0.12,-0.87
5494,-0.59,-0.11,-0.81
5513,-0.59,-0.13,-0.88
5531,-0.55,-0.13,-0.87
5550,-0.55,-0.13,-0.83
5568,-0.57,-0.13,-0.81
5587,-0.65,-0.12,-0.79
5605,-0.65,-0.12,-0.74
5624,-0.67,-0.11,-0.76
5642,-0.63,-0.12,-0.81
5661,-0.57,-0.14,-0.80
5679,-0.58,-0.14,-0.77
5698,-0.59,-0.14,-0.79
5716,-0.59,-0.15,-0.77
5735,-0.57,-0.15,-0.78
5753,-0.57,-0.16,-0.79
5772,-0.56,-0.16,-0.72
5790,-0.59,-0.15,-0.74
5809,-0.62,-0.15,-0.75
5827,-0.63,-0.14,-0.73
5846,-0.67,-0.14,-0.72
5864,-0.65,-0.14,-0.72
5883,-0.69,-0.13,-0.72
5901,-0.65,-0.14,-0.81
5920,-0.56,-0.15,-0.82
5938,-0.52,-0.16,-0.80
5957,-0.56,-0.15,-0.82
5975,-0.55,-0.16,-0.78
5994,-0.58,-0.15,-0.74
6012,-0.65,-0.15,-0.76
6031,-0.63,-0.15,-0.75
6049,-0.61,-0.16,-0.77
6068,-0.64,-0.14,-0.77
6086,-0.67,-0.14,-0.76
6105,-0.63,-0.14,-0.77
6123,-0.63,-0.14,-0.76
6142,-0.63,-0.14,-0.79
6160,-0.61,-0.15,-0.80
6179,-0.62,-0.14,-0.77
6197,-0.68,-0.11,-0.78
6216,-0.73,-0.09,-0.73
6234,-0.79,-0.08,-0.79
6253,-0.83,-0.08,-0.80
6271,-0.84,-0.08,-0.74
6290,-0.91,-0.08,-0.70
6308,-0.94,-0.06,-0.70
6327,-0.91,-0.06,-0.69
6345,-0.87,-0.05,-0.69
6364,-0.86,-0.04,-0.71
6382,-0.87,-0.04,-0.71
6401,-0.84,-0.03,-0.70
6419,-0.83,-0.02,-0.68
6438,-0.89,-0.01,-0.67
6456,-0.89,-0.01,-0.68
6475,-0.89,-0.01,-0.67
6493,-0.77,-0.03,-0.67
6512,-0.74,-0.03,-0.69
6530,-0.74,-0.02,-0.70
6549,-0.72,-0.01,-0.67
6567,-0.71,0.01,-0.65
6586,-0.68,0.02,-0.61
6604,-0.64,0.01,-0.64
6623,-0.68,0.04,-0.61
6641,-0.71,0.06,-0.59
6660,-0.73,0.06,-0.60
6678,-0.68,0.07,-0.67
6697,-0.64,0.10,-0.67
6715,-0.58,0.10,-0.72
6734,-0.52,0.04,-0.73
6752,-0.44,0.06,-0.79
6771,-0.51,0.10,-0.77
6789,-0.48,0.11,-0.75
6808,-0.56,0.15,-0.77
6826,-0.59,0.17,-0.76
6845,-0.49,0.15,-0.86
6863,-0.48,0.17,-0.92
6882,-0.51,0.20,-0.95
6900,-0.37,0.18,-1.07
6919,-0.35,0.20,-1.04
6937,-0.39,0.23,-1.01
6956,-0.40,0.25,-1.05
6974,-0.37,0.26,-1.10
6993,-0.43,0.29,-1.03
7011,-0.42,0.35,-0.98
7030,-0.39,0.39,-0.98
7048,-0.30,0.41,-0.99
7067,-0.15,0.42,-1.05
7085,0.05,0.39,-1.15
7104,0.25,0.44,-1.12
7122,0.46,0.32,-1.11
7141,0.46,0.28,-1.12
7159,0.50,0.23,-1.08
7178,0.59,0.18,-1.05
7196,0.52,0.19,-0.97
7215,0.53,0.17,-0.94
7233,0.65,0.14,-0.99
7252,0.61,0.13,-1.03
7270,0.58,0.12,-1.05
7289,0.52,0.11,-1.02
7307,0.53,0.12,-0.99
7326,0.56,0.10,-1.03
7344,0.60,0.07,-1.10
7363,0.56,0.06,-1.10
7381,0.59,0.03,-1.09
7400,0.69,-0.03,-1.10
7418,0.62,-0.03,-1.13
7437,0.67,-0.01,-1.17
7455,0.50,-0.03,-0.98
7474,0.27,0.01,-1.13
7492,0.21,0.05,-1.19
7511,0.31,-0.01,-1.03
7529,0.36,-0.04,-1.15
7548,0.45,0.01,-1.11
7566,0.30,-0.03,-1.09
7585,0.23,-0.06,-1.07
7603,0.31,-0.06,-1.09
7622,0.21,-0.06,-0.99
7640,0.09,-0.01,-0.96
7659,0.06,-0.04,-0.99
7677,0.03,-0.02,-0.99
7696,-0.04,-0.02,-0.99
7714,-0.01,-0.06,-0.96
7733,-0.00,-0.05,-1.02
7751,-0.04,-0.05,-1.03
7770,-0.03,-0.06,-1.03
7788,0.03,-0.07,-0.99
7807,0.06,-0.08,-0.95
7825,-0.03,-0.06,-1.00
7844,-0.04,-0.07,-0.99
7862,-0.04,-0.07,-0.95
7881,-0.06,-0.07,-0.94
7899,-0.07,-0.08,-0.97
7918,-0.07,-0.08,-0.97
7936,-0.05,-0.07,-0.95
7955,-0.04,-0.08,-0.99
7973,-0.03,-0.08,-0.99
7992,-0.03,-0.08,-0.99
8010,0.02,-0.09,-0.96
8029,-0.00,-0.10,-0.98
8047,0.03,-0.10,-0.99
8066,0.07,-0.11,-1.01
8084,0.05,-0.10,-1.00
8103,0.05,-0.10,-0.98
8121,0.03,-0.09,-0.99
8140,-0.00,-0.08,-0.96
8158,-0.04,-0.07,-0.94
8177,-0.01,-0.08,-0.97
8195,0.02,-0.09,-0.98
8214,0.02,-0.09,-0.95
8232,0.03,-0.10,-0.97
8251,0.05,-0.10,-1.00
8269,0.06,-0.10,-1.00
8288,0.11,-0.11,-0.96
8306,0.04,-0.10,-0.97
8325,-0.00,-0.09,-1.02
8343,0.00,-0.08,-0.98
8362,-0.07,-0.06,-0.90
8380,-0.12,-0.06,-0.92
8399,-0.08,-0.06,-1.01
8417,0.01,-0.08,-0.97
8436,0.01,-0.08,-0.95
8454,0.00,-0.09,-1.03
8473,0.02,-0.09,-1.02
8491,0.05,-0.10,-0.99
8510,0.07,-0.10,-0.99
8528,0.11,-0.10,-1.00
8547,0.11,-0.10,-0.97
8565,0.10,-0.09,-0.97
8584,0.11,-0.08,-1.01
8602,0.18,-0.09,-1.01
8621,0.24,-0.08,-1.02
8639,0.23,-0.06,-1.01
8658,0.21,-0.04,-1.02
8676,0.28,-0.04,-1.04
8695,0.39,-0.05,-1.10
8713,0.46,-0.05,-1.11
8732,0.42,-0.02,-1.09
8750,0.37,0.02,-1.07
8769,0.43,0.01,-1.10
8787,0.54,0.01,-1.19
8806,0.65,0.01,-1.19
8824,0.66,0.02,-1.16
8843,0.66,0.03,-1.18
8861,0.65,0.06,-1.18
8880,0.60,0.08,-1.11
8898,0.57,0.11,-1.06
8917,0.48,0.14,-1.02
8935,0.41,0.15,-1.04
8954,0.45,0.15,-1.11
8972,0.45,0.15,-1.09
8991,0.43,0.17,-1.08
9009,0.41,0.19,-1.14
9028,0.34,0.22,-1.09
9046,0.33,0.21,-1.08
9065,0.18,0.21,-1.10
9083,0.20,0.18,-1.11
9102,0.20,0.19,-1.07
9120,0.07,0.19,-1.03
9139,0.01,0.17,-1.02
9157,0.10,0.15,-1.06
9176,0.17,0.15,-1.08
9194,0.12,0.19,-1.08
9213,0.10,0.21,-1.09
9231,0.06,0.23,-1.08
9250,0.05,0.26,-1.03
9268,-0.00,0.28,-0.96
9287,-0.21,0.32,-0.89
9305,-0.35,0.30,-0.78
9324,-0.25,0.24,-0.75
9342,-0.11,0.20,-0.76
9361,-0.08,0.18,-0.76
9379,-0.10,0.16,-0.73
9398,-0.12,0.19,-0.70
9416,-0.23,0.23,-0.71
9435,-0.45,0.27,-0.72
9453,-0.67,0.32,-0.61
9472,-0.78,0.32,-0.61
9490,-0.79,0.28,-0.67
9509,-0.74,0.36,-0.53
9527,-0.85,0.22,-0.71
9546,-0.79,0.20,-0.55
9564,-0.87,0.19,-0.58
9583,-0.96,0.18,-0.61
9601,-0.99,0.21,-0.59
9620,-1.11,0.17,-0.61
9638,-1.12,0.12,-0.58
9657,-1.13,0.12,-0.61
9675,-1.19,0.10,-0.61
9694,-1.19,0.06,-0.61
9712,-1.08,0.07,-0.68
9731,-1.01,-0.03,-0.74
9749,-0.97,-0.00,-0.78
9768,-0.78,-0.02,-0.90
9786,-0.76,-0.03,-0.83
9805,-0.85,-0.01,-0.81
9823,-0.89,0.00,-0.73
9842,-0.91,-0.01,-0.68
9860,-0.93,-0.01,-0.75
9879,-0.88,-0.03,-0.80
9897,-0.84,-0.03,-0.83
9916,-0.83,-0.05,-0.83
9934,-0.77,-0.06,-0.90
9953,-0.68,-0.08,-0.89
9971,-0.63,-0.09,-0.87
9990,-0.60,-0.10,-0.89
10008,-0.54,-0.11,-0.91
10027,-0.48,-0.12,-0.86
10045,-0.51,-0.11,-0.84
10064,-0.56,-0.11,-0.82
10082,-0.59,-0.10,-0.80
10101,-0.60,-0.11,-0.76
10119,-0.59,-0.11,-0.82
10138,-0.50,-0.13,-0.85
10156,-0.48,-0.14,-0.84
10175,-0.49,-0.14,-0.88
10193,-0.47,-0.15,-0.87
10212,-0.47,-0.15,-0.84
10230,-0.48,-0.14,-0.81
10249,-0.50,-0.15,-0.83
10267,-0.57,-0.13,-0.82
10286,-0.61,-0.12,-0.76
10304,-0.57,-0.12,-0.79
10323,-0.50,-0.13,-0.84
10341,-0.47,-0.13,-0.83
10360,-0.48,-0.14,-0.84
10378,-0.46,-0.16,-0.89
10397,-0.43,-0.17,-0.87
10415,-0.45,-0.16,-0.85
10434,-0.44,-0.16,-0.86
10452,-0.47,-0.15,-0.86
10471,-0.50,-0.14,-0.83
10489,-0.48,-0.14,-0.81
10508,-0.49,-0.14,-0.82
10526,-0.47,-0.14,-0.83
10545,-0.46,-0.15,-0.83
10563,-0.45,-0.16,-0.85
10582,-0.45,-0.16,-0.86
10600,-0.42,-0.17,-0.86
10619,-0.43,-0.17,-0.86
10637,-0.45,-0.16,-0.85
10656,-0.46,-0.15,-0.84
10674,-0.46,-0.15,-0.82
10693,-0.47,-0.15,-0.85
10711,-0.43,-0.16,-0.87
10730,-0.40,-0.17,-0.87
10748,-0.41,-0.17,-0.85
10767,-0.40,-0.18,-0.82
10785,-0.45,-0.17,-0.82
10804,-0.46,-0.16,-0.81
10822,-0.48,-0.14,-0.79
10841,-0.55,-0.13,-0.81
10859,-0.53,-0.13,-0.82
10878,-0.47,-0.15,-0.83
10896,-0.46,-0.15,-0.89
10915,-0.48,-0.15,-0.88
10933,-0.47,-0.15,-0.86
10952,-0.52,-0.14,-0.88
10970,-0.51,-0.14,-0.88
10989,-0.51,-0.14,-0.84
11007,-0.51,-0.13,-0.84
11026,-0.53,-0.13,-0.85
11044,-0.57,-0.12,-0.83
11063,-0.57,-0.13,-0.85
11081,-0.54,-0.13,-0.87
11100,-0.50,-0.13,-0.85
11118,-0.52,-0.13,-0.82
11137,-0.56,-0.12,-0.86
11155,-0.56,-0.12,-0.83
11174,-0.60,-0.10,-0.80
11192,-0.69,-0.09,-0.82
11211,-0.76,-0.07,-0.86
11229,-0.85,-0.05,-0.77
11248,-0.90,-0.04,-0.75
11266,-0.94,-0.04,-0.79
11285,-0.98,-0.03,-0.78
11303,-1.02,0.01,-0.75
11322,-1.13,0.04,-0.74
11340,-1.19,0.07,-0.77
11359,-1.19,0.09,-0.76
11377,-1.21,0.11,-0.71
11396,-1.20,0.12,-0.75
11414,-1.17,0.13,-0.71
11433,-1.14,0.14,-0.69
11451,-1.13,0.15,-0.70
11470,-1.08,0.14,-0.72
11488,-1.03,0.13,-0.73
11507,-0.98,0.12,-0.68
11525,-0.98,0.16,-0.63
11544,-1.00,0.16,-0.62
11562,-0.98,0.15,-0.59
11581,-0.96,0.22,-0.59
11599,-1.00,0.26,-0.57
11618,-0.97,0.29,-0.59
11636,-0.88,0.33,-0.58
11655,-0.84,0.36,-0.58
11673,-0.82,0.39,-0.57
11692,-0.70,0.41,-0.57
11710,-0.60,0.44,-0.59
11729,-0.51,0.49,-0.63
11747,-0.44,0.47,-0.59
11766,-0.51,0.58,-0.55
11784,-0.53,0.66,-0.60
11803,-0.45,0.73,-0.70
11821,-0.34,0.78,-0.86
11840,-0.12,0.77,-0.97
11858,0.11,0.78,-0.98
11877,0.22,0.73,-0.97
11895,0.14,0.75,-1.03
11914,0.33,0.71,-0.88
11932,0.68,0.63,-0.93
11951,0.67,0.58,-0.88
11969,0.72,0.55,-0.92
11988,0.89,0.50,-0.95
12006,1.08,0.40,-0.98
12025,1.08,0.35,-1.11
12043,1.03,0.31,-1.15
12062,1.00,0.30,-1.05
12080,0.98,0.29,-1.05
12099,1.05,0.25,-1.15
12117,1.11,0.11,-1.23
12136,1.23,0.09,-1.33
12154,1.19,0.16,-1.17
12173,0.92,0.05,-1.40
12191,0.82,0.08,-1.24
12210,0.70,0.11,-1.13
12228,0.70,0.06,-1.27
12247,0.79,0.11,-1.07
12265,0.50,0.10,-1.11
12284,0.41,0.07,-1.18
12302,0.42,0.03,-1.19
12321,0.54,0.02,-1.09
12339,0.46,0.01,-1.04
12358,0.39,0.01,-1.12
12376,0.32,0.01,-1.06
12395,0.24,0.01,-1.03
12413,0.19,0.00,-1.02
12432,0.16,-0.01,-0.99
12450,0.13,-0.02,-0.97
12469,0.09,-0.02,-1.00
12487,0.10,-0.01,-0.94
12506,0.08,-0.02,-0.91
12524,-0.01,-0.02,-0.97
12543,-0.01,-0.04,-1.00
12561,0.00,-0.05,-0.94
12580,0.04,-0.05,-0.92
12598,-0.04,-0.05,-1.01
12617,0.00,-0.05,-1.03
12635,0.08,-0.06,-0.97
12654,0.06,-0.06,-0.93
12672,0.05,-0.07,-0.94
12691,0.06,-0.08,-0.97
12709,0.06,-0.08,-0.98
12728,0.06,-0.08,-0.92
12746,0.09,-0.09,-0.93
12765,0.10,-0.09,-0.98
12783,0.11,-0.09,-0.96
12802,0.14,-0.10,-0.94
12820,0.10,-0.09,-0.97
12839,0.09,-0.10,-0.99
12857,0.11,-0.09,-0.98
12876,0.11,-0.09,-0.95
12894,0.07,-0.07,-0.99
12913,0.08,-0.07,-1.04
12931,0.08,-0.06,-1.01
12950,0.09,-0.06,-0.96
12968,0.05,-0.06,-0.98
12987,0.05,-0.07,-1.02
13005,0.10,-0.07,-1.00
13024,0.07,-0.07,-0.97
13042,0.06,-0.05,-0.99
13061,0.07,-0.05,-1.01
13079,0.08,-0.04,-0.99
13098,0.02,-0.03,-0.97
13116,0.05,-0.04,-0.99
13135,0.08,-0.05,-1.00
13153,0.11,-0.05,-0.96
13172,0.12,-0.06,-0.96
13190,0.10,-0.05,-0.97
13209,0.13,-0.06,-0.99
13227,0.17,-0.06,-0.95
13246,0.14,-0.06,-0.95
13264,0.13,-0.07,-0.98
13283,0.14,-0.07,-0.97
13301,0.13,-0.07,-0.94
13320,0.11,-0.06,-0.94
13338,0.10,-0.06,-0.97
13357,0.09,-0.06,-0.97
13375,0.11,-0.07,-0.97
13394,0.13,-0.07,-0.95
13412,0.13,-0.07,-0.95
13431,0.17,-0.08,-0.95
13449,0.20,-0.08,-0.95
13468,0.20,-0.08,-0.97
13486,0.28,-0.07,-1.04
13505,0.35,-0.06,-1.05
13523,0.36,-0.03,-1.05
13542,0.37,-0.00,-1.07
13560,0.44,0.00,-1.10
13579,0.53,0.01,-1.11
13597,0.61,0.03,-1.17
13616,0.72,0.04,-1.20
13634,0.84,0.04,-1.22
13653,0.93,0.04,-1.23
13671,0.94,0.07,-1.26
13690,0.94,0.10,-1.24
13708,0.95,0.11,-1.21
13727,0.96,0.12,-1.17
13745,0.95,0.14,-1.11
13764,0.86,0.19,-1.02
13782,0.82,0.24,-0.99
13801,0.85,0.26,-1.06
13819,0.82,0.31,-1.10
13838,0.82,0.34,-1.20
13856,0.83,0.36,-1.23
13875,0.66,0.43,-1.18
13893,0.64,0.44,-1.16
13912,0.65,0.45,-1.15
13930,0.55,0.48,-1.11
13949,0.55,0.51,-1.08
13967,0.54,0.51,-0.93
13986,0.41,0.54,-0.98
14004,0.51,0.52,-0.96
14023,0.53,0.54,-0.88
14041,0.45,0.58,-0.79
14060,0.26,0.61,-0.74
14078,-0.05,0.65,-0.79
14097,-0.25,0.64,-0.79
14115,-0.31,0.56,-0.57
14134,-0.39,0.44,-0.52
14152,-0.28,0.29,-0.58
14171,-0.26,0.18,-0.59
14189,-0.44,0.04,-0.61
14208,-0.45,-0.02,-0.81
14226,-0.59,0.14,-0.85
14245,-0.74,0.40,-0.85
14263,-0.88,0.61,-0.72
14282,-1.01,0.71,-0.64
14300,-1.12,0.68,-0.60
14319,-1.06,0.75,-0.61
14337,-1.22,0.63,-0.51
14356,-0.92,0.57,-0.71
14374,-1.02,0.59,-0.57
14393,-1.09,0.54,-0.41
14411,-1.35,0.50,-0.57
14430,-1.45,0.41,-0.37
14448,-1.41,0.30,-0.52
14467,-1.38,0.24,-0.55
14485,-1.45,0.19,-0.55
14504,-1.32,0.15,-0.66
14522,-1.17,0.15,-0.75
14541,-1.07,0.16,-0.71
14559,-1.06,0.17,-0.74
14578,-1.15,0.20,-0.82
14596,-1.11,0.19,-0.77
14615,-1.03,0.16,-0.76
14633,-1.04,0.13,-0.76
14652,-0.95,0.10,-0.70
14670,-0.94,0.06,-0.70
14689,-0.91,0.03,-0.76
14707,-0.70,-0.03,-0.79
14726,-0.64,-0.06,-0.83
14744,-0.64,-0.07,-0.87
14763,-0.54,-0.09,-0.86
14781,-0.52,-0.09,-0.80
14800,-0.54,-0.09,-0.81
14818,-0.54,-0.10,-0.77
14837,-0.56,-0.10,-0.74
14855,-0.59,-0.10,-0.69
14874,-0.56,-0.12,-0.70
14892,-0.55,-0.13,-0.75
14911,-0.38,-0.17,-0.80
14929,-0.29,-0.20,-0.88
14948,-0.33,-0.19,-0.90
14966,-0.39,-0.18,-0.89
14985,-0.42,-0.17,-0.86
15003,-0.49,-0.14,-0.80
15022,-0.60,-0.12,-0.82
15040,-0.63,-0.11,-0.85
15059,-0.52,-0.13,-0.85
15077,-0.38,-0.15,-0.85
15096,-0.44,-0.15,-0.91
15114,-0.43,-0.15,-0.88
15133,-0.46,-0.14,-0.85
15151,-0.51,-0.13,-0.86
15170,-0.53,-0.12,-0.83
15188,-0.56,-0.12,-0.86
15207,-0.53,-0.12,-0.87
15225,-0.51,-0.13,-0.88
15244,-0.48,-0.14,-0.89
15262,-0.45,-0.14,-0.86
15281,-0.45,-0.14,-0.84
15299,-0.48,-0.14,-0.86
15318,-0.49,-0.13,-0.84
15336,-0.52,-0.13,-0.81
15355,-0.52,-0.14,-0.81
15373,-0.53,-0.14,-0.81
15392,-0.53,-0.13,-0.80
15410,-0.54,-0.14,-0.85
15429,-0.49,-0.14,-0.83
15447,-0.43,-0.15,-0.80
15466,-0.44,-0.16,-0.82
15484,-0.45,-0.15,-0.84
15503,-0.50,-0.15,-0.82
15521,-0.49,-0.15,-0.80
15540,-0.47,-0.15,-0.81
15558,-0.47,-0.15,-0.82
15577,-0.46,-0.15,-0.84
15595,-0.43,-0.16,-0.82
15614,-0.47,-0.15,-0.83
15632,-0.46,-0.15,-0.81
15651,-0.45,-0.16,-0.81
15669,-0.45,-0.16,-0.85
15688,-0.45,-0.15,-0.85
15706,-0.50,-0.14,-0.85
15725,-0.50,-0.14,-0.85
15743,-0.51,-0.13,-0.86
15762,-0.54,-0.13,-0.85
15780,-0.54,-0.13,-0.86
15799,-0.55,-0.13,-0.85
15817,-0.55,-0.13,-0.87
15836,-0.55,-0.13,-0.84
15854,-0.65,-0.11,-0.86
15873,-0.73,-0.08,-0.87
15891,-0.76,-0.05,-0.79
15910,-0.81,-0.04,-0.82
15928,-0.86,-0.00,-0.81
15947,-0.87,0.01,-0.79
15965,-0.88,0.02,-0.81
15984,-1.03,0.07,-0.80
16002,-1.11,0.11,-0.79
16021,-1.14,0.14,-0.70
16039,-1.19,0.18,-0.68
16058,-1.34,0.24,-0.69
16076,-1.48,0.29,-0.68
16095,-1.53,0.34,-0.70
16113,-1.54,0.37,-0.63
16132,-1.56,0.41,-0.64
16150,-1.52,0.45,-0.64
16169,-1.48,0.49,-0.66
16187,-1.45,0.55,-0.70
16206,-1.50,0.64,-0.69
16224,-1.46,0.67,-0.66
16243,-1.39,0.70,-0.60
16261,-1.43,0.75,-0.57
16280,-1.29,0.85,-0.56
16298,-1.10,0.90,-0.52
16317,-0.95,0.96,-0.52
16335,-0.78,1.00,-0.57
16354,-0.45,1.00,-0.40
16372,-0.25,1.00,-0.36
16391,-0.05,1.01,-0.58
16409,0.02,0.93,-0.67
16428,0.21,0.93,-0.65
16446,0.44,0.92,-0.59
16465,0.86,0.87,-0.74
16483,1.12,0.79,-1.09
16502,1.29,0.68,-1.35
16520,1.46,0.53,-1.42
16539,1.15,0.36,-1.42
16557,1.18,0.40,-1.24
16576,1.09,0.35,-1.37
16594,0.91,0.31,-1.28
16613,0.91,0.26,-1.28
16631,0.84,0.22,-1.21
16650,0.73,0.20,-1.14
16668,0.77,0.16,-1.21
16687,0.76,0.13,-1.23
16705,0.68,0.14,-1.23
16724,0.64,0.14,-1.21
16742,0.58,0.13,-1.16
16761,0.57,0.18,-1.27
16779,0.38,0.18,-1.28
16798,0.22,0.12,-1.28
16816,0.32,0.16,-1.29
16835,0.24,0.13,-1.24
16853,0.30,0.08,-1.23
16872,0.34,0.05,-1.16
16890,0.26,0.05,-1.17
16909,0.21,-0.02,-1.13
16927,0.35,0.02,-1.13
16946,0.20,-0.04,-1.02
16964,0.22,0.03,-1.18
16983,0.04,0.01,-1.01
17001,0.06,-0.01,-1.12
17020,0.03,-0.02,-1.04
17038,-0.02,-0.04,-0.98
17057,0.03,-0.07,-1.04
17075,0.04,-0.07,-0.98
17094,-0.01,-0.08,-0.92
17112,-0.04,-0.07,-0.94
17131,-0.07,-0.07,-0.94
17149,-0.08,-0.07,-0.96
17168,-0.09,-0.07,-1.00
17186,-0.14,-0.06,-1.04
17205,-0.12,-0.06,-0.99
17223,-0.16,-0.05,-1.01
17242,-0.19,-0.04,-1.02
17260,-0.13,-0.05,-0.97
17279,-0.13,-0.06,-0.99
17297,-0.08,-0.07,-0.96
17316,-0.06,-0.08,-0.95
17334,-0.08,-0.09,-1.00
17353,-0.06,-0.09,-1.00
17371,-0.04,-0.09,-0.95
17390,0.01,-0.10,-0.99
17408,-0.07,-0.08,-1.01
17427,-0.04,-0.08,-0.99
17445,-0.03,-0.08,-0.99
17464,-0.04,-0.08,-0.93
17482,-0.02,-0.08,-0.87
17501,-0.08,-0.07,-0.96
17519,-0.04,-0.08,-0.95
17538,-0.02,-0.08,-0.94
17556,-0.02,-0.09,-1.01
17575,0.01,-0.09,-1.00
17593,-0.02,-0.08,-0.94
17612,0.00,-0.08,-0.96
17630,-0.03,-0.08,-0.96
17649,-0.08,-0.07,-0.93
17667,-0.04,-0.07,-0.96
17686,-0.06,-0.05,-0.97
17704,-0.05,-0.05,-0.97
17723,-0.05,-0.05,-1.01
17741,-0.08,-0.05,-0.99
17760,-0.06,-0.06,-0.97
17778,-0.09,-0.06,-0.97
17797,-0.04,-0.08,-0.97
17815,-0.01,-0.08,-0.97
17834,-0.05,-0.06,-0.98
17852,-0.03,-0.06,-0.94
17871,-0.07,-0.05,-0.98
17889,-0.04,-0.06,-1.00
17908,-0.02,-0.07,-0.98
17926,-0.07,-0.06,-0.98
17945,-0.04,-0.07,-0.97
17963,-0.02,-0.08,-0.95
17982,-0.04,-0.07,-0.95
18000,-0.04,-0.07,-0.95
18019,-0.04,-0.07,-0.96
18037,0.00,-0.08,-1.03
18056,0.09,-0.10,-1.03
18074,0.04,-0.08,-0.98
18093,0.00,-0.07,-1.00
18111,0.04,-0.07,-1.02
18130,0.04,-0.06,-0.99
18148,0.03,-0.06,-0.99
18167,0.03,-0.05,-1.04
18185,0.07,-0.06,-1.05
18204,0.12,-0.06,-1.03
18222,0.14,-0.06,-1.05
18241,0.17,-0.05,-1.06
18259,0.22,-0.05,-1.07
18278,0.26,-0.03,-1.10
18296,0.27,-0.01,-1.09
18315,0.33,0.01,-1.15
18333,0.42,0.02,-1.25
18352,0.49,0.04,-1.25
18370,0.48,0.07,-1.26
18389,0.51,0.08,-1.26
18407,0.61,0.08,-1.27
18426,0.72,0.09,-1.32
18444,0.74,0.12,-1.30
18463,0.79,0.16,-1.27
18481,0.83,0.18,-1.26
18500,0.87,0.21,-1.28
18518,0.85,0.25,-1.28
18537,0.79,0.30,-1.22
18555,0.67,0.35,-1.15
18574,0.67,0.37,-1.11
18592,0.66,0.39,-1.13
18611,0.65,0.43,-1.11
18629,0.68,0.45,-1.08
18648,0.60,0.49,-1.09
18666,0.54,0.54,-1.03
18685,0.46,0.57,-1.00
18703,0.43,0.57,-0.99
18722,0.28,0.60,-0.96
18740,0.31,0.57,-0.87
18759,0.14,0.56,-0.81
18777,0.11,0.50,-0.83
18796,0.23,0.42,-0.84
18814,0.20,0.36,-0.81
18833,0.01,0.26,-0.79
18851,-0.05,0.10,-0.78
18870,-0.13,0.03,-0.88
18888,-0.16,0.12,-1.01
18907,-0.07,0.28,-1.09
18925,-0.15,0.51,-0.95
18944,-0.38,0.66,-0.80
18962,-0.70,0.73,-0.73
18981,-0.94,0.72,-0.74
18999,-1.00,0.67,-0.66
19018,-0.96,0.55,-0.56
19036,-1.09,0.49,-0.58
19055,-1.18,0.50,-0.42
19073,-1.22,0.34,-0.62
19092,-1.23,0.29,-0.53
19110,-1.27,0.24,-0.58
19129,-1.39,0.18,-0.60
19147,-1.37,0.17,-0.81
19166,-1.33,0.14,-0.65
19184,-1.19,0.12,-0.79
19203,-1.29,0.13,-0.77
19221,-1.27,0.13,-0.77
19240,-1.29,0.14,-0.74
19258,-1.43,0.16,-0.67
19277,-1.43,0.13,-0.71
19295,-1.26,0.07,-0.79
19314,-1.02,0.00,-0.78
19332,-0.92,-0.04,-0.81
19351,-0.84,-0.06,-0.83
19369,-0.79,-0.05,-0.80
19388,-0.80,-0.05,-0.82
19406,-0.73,-0.07,-0.81
19425,-0.73,-0.07,-0.83
19443,-0.70,-0.08,-0.84
19462,-0.59,-0.10,-0.85
19480,-0.55,-0.12,-0.84
19499,-0.53,-0.14,-0.84
19517,-0.53,-0.15,-0.84
19536,-0.48,-0.16,-0.83
19554,-0.40,-0.18,-0.84
19573,-0.45,-0.17,-0.86
19591,-0.43,-0.16,-0.88
19610,-0.35,-0.18,-0.87
19628,-0.36,-0.17,-0.88
19647,-0.39,-0.17,-0.93
19665,-0.36,-0.18,-0.91
19684,-0.36,-0.19,-0.90
19702,-0.38,-0.19,-0.91
19721,-0.42,-0.18,-0.88
19739,-0.43,-0.17,-0.86
19758,-0.41,-0.18,-0.88
19776,-0.39,-0.18,-0.90
19795,-0.38,-0.18,-0.89
19813,-0.43,-0.17,-0.90
19832,-0.42,-0.18,-0.85
19850,-0.46,-0.17,-0.86
19869,-0.46,-0.17,-0.88
19887,-0.46,-0.17,-0.85
19906,-0.45,-0.17,-0.85
19924,-0.45,-0.17,-0.86
19943,-0.44,-0.17,-0.86
19961,-0.47,-0.16,-0.84
19980,-0.42,-0.18,-0.83
19998,-0.48,-0.17,-0.84
20017,-0.45,-0.17,-0.85
20035,-0.42,-0.18,-0.84
20054,-0.39,-0.19,-0.83
20072,-0.41,-0.19,-0.85
20091,-0.44,-0.18,-0.84
20109,-0.47,-0.17,-0.80
20128,-0.49,-0.17,-0.83
20146,-0.53,-0.15,-0.80
20165,-0.52,-0.15,-0.82
20183,-0.49,-0.16,-0.86
20202,-0.47,-0.16,-0.88
20220,-0.42,-0.17,-0.89
20239,-0.43,-0.17,-0.88
20257,-0.43,-0.17,-0.88
20276,-0.44,-0.17,-0.87
20294,-0.49,-0.15,-0.84
20313,-0.47,-0.15,-0.84
20331,-0.53,-0.15,-0.85
20350,-0.48,-0.16,-0.88
20368,-0.45,-0.17,-0.84
20387,-0.48,-0.17,-0.84
20405,-0.52,-0.16,-0.84
20424,-0.55,-0.13,-0.79
20442,-0.61,-0.12,-0.83
20461,-0.64,-0.12,-0.86
20479,-0.60,-0.12,-0.86
20498,-0.60,-0.13,-0.87
20516,-0.60,-0.13,-0.87
20535,-0.65,-0.13,-0.85
20553,-0.69,-0.11,-0.81
20572,-0.77,-0.07,-0.80
20590,-0.87,-0.04,-0.82
20609,-0.96,-0.01,-0.77
20627,-1.07,0.01,-0.79
20646,-1.09,0.01,-0.81
20664,-1.14,0.04,-0.71
20683,-1.13,0.04,-0.72
20701,-1.11,0.06,-0.79
20720,-1.16,0.10,-0.71
20738,-1.09,0.10,-0.75
20757,-1.09,0.10,-0.75
20775,-1.13,0.14,-0.69
20794,-1.11,0.17,-0.71
20812,-1.10,0.21,-0.70
20831,-1.08,0.25,-0.71
20849,-1.12,0.30,-0.73
20868,-1.12,0.33,-0.72
20886,-1.06,0.34,-0.76
20905,-0.96,0.34,-0.77
20923,-0.95,0.36,-0.67
20942,-0.89,0.40,-0.58
20960,-0.78,0.47,-0.56
20979,-0.71,0.45,-0.52
20997,-0.67,0.47,-0.45
21016,-0.62,0.51,-0.46
21034,-0.61,0.56,-0.45
21053,-0.63,0.64,-0.46
21071,-0.64,0.71,-0.42
21090,-0.59,0.77,-0.43
21108,-0.39,0.79,-0.46
21127,-0.19,0.77,-0.54
21145,0.01,0.78,-0.69
21164,0.18,0.79,-0.82
21182,0.33,0.76,-0.91
21201,0.40,0.75,-1.04
21219,0.47,0.75,-1.21
21238,0.63,0.80,-1.25
21256,0.91,0.69,-1.37
21275,1.14,0.59,-1.53
21293,1.13,0.52,-1.48
21312,1.43,0.38,-1.45
21330,1.68,0.21,-1.38
21349,1.65,0.10,-1.36
21367,1.43,0.08,-1.31
21386,1.20,0.09,-1.18
21404,1.04,0.11,-1.13
21423,0.92,0.10,-1.15
21441,0.82,0.11,-1.29
21460,0.83,0.08,-1.24
21478,0.73,0.07,-1.24
21497,0.72,0.04,-1.31
21515,0.55,0.07,-1.14
21534,0.44,-0.01,-1.16
21552,0.46,-0.01,-1.05
21571,0.31,0.03,-1.12
21589,0.27,0.01,-1.07
21608,0.17,-0.00,-1.02
21626,0.07,-0.02,-1.13
21645,0.11,-0.05,-1.09
21663,0.02,-0.04,-1.03
21682,0.00,-0.05,-1.07
21700,-0.04,-0.03,-1.04
21719,-0.10,-0.02,-1.06
21737,-0.06,-0.03,-1.06
21756,-0.05,-0.04,-1.10
21774,-0.03,-0.05,-1.07
21793,-0.01,-0.07,-1.03
21811,0.05,-0.09,-1.11
21830,0.05,-0.09,-1.07
21848,0.03,-0.09,-1.07
21867,0.02,-0.09,-1.07
21885,0.03,-0.09,-1.02
21904,0.05,-0.08,-0.93
21922,0.05,-0.09,-0.94
21941,0.01,-0.09,-0.99
21959,0.04,-0.09,-0.92
21978,0.05,-0.09,-0.88
21996,0.01,-0.09,-0.95
22015,0.06,-0.10,-0.97
22033,0.08,-0.09,-0.93
22052,0.05,-0.08,-0.93
22070,0.05,-0.10,-0.97
22089,0.03,-0.10,-0.98
22107,0.04,-0.09,-0.96
22126,0.02,-0.09,-0.98
22144,-0.03,-0.08,-0.99
22163,-0.03,-0.08,-0.99
22181,-0.02,-0.08,-1.00
22200,-0.01,-0.08,-0.99
22218,-0.03,-0.08,-0.99
22237,-0.03,-0.09,-0.99
22255,-0.01,-0.09,-0.99
22274,-0.00,-0.10,-0.95
22292,0.02,-0.10,-0.95
22311,0.02,-0.10,-0.94
22329,0.03,-0.11,-0.92
22348,0.02,-0.10,-0.95
22366,0.03,-0.09,-0.96
22385,0.04,-0.09,-0.96
22403,0.11,-0.10,-0.95
22422,0.12,-0.10,-1.02
22440,0.18,-0.12,-0.98
22459,0.18,-0.11,-0.98
22477,0.22,-0.11,-0.98
22496,0.20,-0.10,-0.96
22514,0.20,-0.08,-1.01
22533,0.25,-0.07,-0.99
22551,0.26,-0.07,-0.99
22570,0.27,-0.06,-1.03
22588,0.31,-0.06,-1.07
22607,0.34,-0.05,-1.06
22625,0.36,-0.05,-1.06
22644,0.42,-0.05,-1.05
22662,0.44,-0.05,-1.03
22681,0.44,-0.04,-1.04
22699,0.48,-0.04,-1.04
22718,0.50,-0.02,-1.04
22736,0.58,-0.01,-1.07
22755,0.63,-0.01,-1.12
22773,0.61,-0.00,-1.13
22792,0.56,0.02,-1.14
22810,0.47,0.06,-1.14
22829,0.40,0.08,-1.14
22847,0.36,0.09,-1.14
22866,0.34,0.10,-1.10
22884,0.34,0.11,-1.10
22903,0.28,0.11,-1.09
22921,0.30,0.11,-1.10
22940,0.31,0.12,-1.06
22958,0.31,0.12,-1.06
22977,0.33,0.14,-1.07
22995,0.30,0.15,-0.99
23014,0.16,0.19,-1.01
23032,0.04,0.20,-1.03
23051,0.08,0.20,-1.03
23069,0.12,0.19,-1.05
23088,0.16,0.20,-1.02
23106,0.19,0.19,-1.03
23125,0.22,0.17,-1.01
23143,0.25,0.17,-0.98
23162,0.11,0.22,-0.95
23180,-0.03,0.25,-0.90
23199,-0.08,0.26,-0.91
23217,-0.09,0.27,-0.88
23236,-0.12,0.26,-0.89
23254,-0.20,0.27,-0.93
23273,-0.25,0.28,-0.91
23291,-0.26,0.28,-0.86
23310,-0.27,0.29,-0.78
23328,-0.32,0.30,-0.86
23347,-0.43,0.32,-0.85
23365,-0.42,0.30,-0.78
23384,-0.35,0.28,-0.78
23402,-0.38,0.26,-0.78
23421,-0.34,0.30,-0.73
23439,-0.61,0.33,-0.68
23458,-0.79,0.37,-0.59
23476,-0.91,0.35,-0.60
23495,-0.99,0.31,-0.56
23513,-0.99,0.27,-0.57
23532,-1.02,0.24,-0.52
23550,-1.03,0.20,-0.57
23569,-1.09,0.19,-0.52
23587,-1.02,0.13,-0.58
23606,-1.03,0.12,-0.60
23624,-1.12,0.10,-0.65
23643,-1.16,0.09,-0.72
23661,-1.28,0.12,-0.65
23680,-1.17,0.11,-0.74
23698,-1.14,0.09,-0.67
23717,-1.15,0.09,-0.70
23735,-1.05,0.06,-0.84
23754,-0.87,0.02,-0.83
23772,-0.75,-0.01,-0.85
23791,-0.75,-0.02,-0.84
23809,-0.76,-0.02,-0.80
23828,-0.70,-0.03,-0.81
23846,-0.64,-0.04,-0.80
23865,-0.72,-0.02,-0.75
23883,-0.77,-0.01,-0.81
23902,-0.84,0.01,-0.82
23920,-0.90,0.02,-0.81
23939,-0.84,0.01,-0.89
23957,-0.67,-0.02,-1.00
23976,-0.46,-0.06,-1.01
23994,-0.38,-0.08,-1.01
24013,-0.43,-0.06,-1.03
24031,-0.40,-0.07,-0.97
24050,-0.44,-0.06,-0.94
24068,-0.55,-0.04,-0.91
24087,-0.60,-0.04,-0.88
24105,-0.63,-0.04,-0.86
24124,-0.60,-0.05,-0.87
24142,-0.58,-0.06,-0.88
24161,-0.60,-0.06,-0.86
24179,-0.63,-0.05,-0.87
24198,-0.66,-0.04,-0.91
24216,-0.64,-0.03,-0.93
24235,-0.60,-0.04,-0.92
24253,-0.61,-0.03,-0.94
24272,-0.62,-0.01,-0.94
24290,-0.65,0.01,-0.93
24309,-0.73,0.03,-0.94
24327,-0.77,0.04,-0.92
24346,-0.73,0.04,-0.87
24364,-0.72,0.03,-0.91
24383,-0.76,0.03,-0.92
24401,-0.79,0.05,-0.82
24420,-0.80,0.06,-0.82
24438,-0.81,0.07,-0.83
24457,-0.74,0.06,-0.80
24475,-0.74,0.08,-0.78
24494,-0.80,0.12,-0.76
24512,-0.83,0.15,-0.70
24531,-0.87,0.20,-0.67
24549,-0.86,0.22,-0.73
24568,-0.78,0.22,-0.70
24586,-0.66,0.22,-0.72
24605,-0.66,0.23,-0.71
24623,-0.59,0.22,-0.73
24642,-0.63,0.24,-0.68
24660,-0.65,0.28,-0.66
24679,-0.70,0.29,-0.64
24697,-0.75,0.37,-0.57
24716,-0.75,0.43,-0.45
24734,-0.67,0.44,-0.48
24753,-0.66,0.49,-0.46
24771,-0.53,0.52,-0.43
24790,-0.37,0.54,-0.51
24808,-0.27,0.55,-0.59
24827,-0.15,0.57,-0.72
24845,-0.02,0.54,-0.93
24864,0.19,0.55,-1.17
24882,0.40,0.50,-1.10
24901,0.35,0.57,-1.05
24919,0.38,0.62,-1.10
24938,0.40,0.61,-1.10
24956,0.63,0.61,-1.28
24975,0.78,0.56,-1.35
24993,1.04,0.45,-1.49
25012,1.14,0.34,-1.53
25030,1.16,0.24,-1.51
25049,1.23,0.15,-1.47
25067,1.28,0.05,-1.36
25086,1.18,-0.01,-1.26
25104,1.04,-0.02,-1.14
25123,0.85,0.00,-0.99
25141,0.74,0.04,-1.00
25160,0.71,0.07,-1.08
25178,0.78,0.05,-1.08
25197,0.69,0.05,-1.17
25215,0.66,0.04,-1.33
25234,0.44,0.04,-1.26
25252,0.34,0.03,-1.23
25271,0.33,0.03,-1.19
25289,0.26,-0.04,-1.12
25308,0.35,-0.05,-1.09
25326,0.29,-0.09,-1.09
25345,0.16,-0.08,-1.06
25363,0.04,-0.06,-1.07
25382,-0.04,-0.06,-0.95
25400,-0.13,-0.05,-0.96
25419,-0.17,-0.05,-0.96
25437,-0.25,-0.07,-0.86
25456,-0.30,-0.07,-1.02
25474,-0.35,-0.03,-1.03
25493,-0.30,-0.06,-0.92
25511,-0.26,-0.07,-1.07
25530,-0.13,-0.12,-0.99
25548,-0.08,-0.13,-1.06
25567,-0.12,-0.12,-1.01
25585,-0.11,-0.10,-0.98
25604,-0.10,-0.10,-0.95
25622,-0.11,-0.09,-0.99
25641,-0.09,-0.08,-0.97
25659,-0.03,-0.10,-0.93
25678,-0.08,-0.08,-0.98
25696,-0.05,-0.09,-0.92
25715,-0.00,-0.09,-0.92
25733,-0.02,-0.09,-0.94
25752,-0.01,-0.10,-0.97
25770,0.02,-0.09,-0.96
25789,0.02,-0.08,-0.95
25807,0.02,-0.08,-0.97
25826,-0.02,-0.07,-1.03
25844,-0.02,-0.07,-0.99
25863,0.00,-0.07,-0.97
25881,0.01,-0.08,-1.03
25900,0.00,-0.08,-1.02
25918,-0.05,-0.07,-0.98
25937,-0.05,-0.08,-0.99
25955,-0.10,-0.06,-1.00
25974,-0.07,-0.07,-1.02
25992,-0.02,-0.08,-0.99
26011,-0.02,-0.08,-0.98
26029,-0.03,-0.08,-1.02
26048,-0.03,-0.08,-0.97
26066,-0.01,-0.09,-0.96
26085,-0.00,-0.09,-0.98
26103,-0.04,-0.08,-1.00
26122,0.01,-0.08,-0.97
26140,0.01,-0.08,-0.91
26159,-0.04,-0.07,-0.96
26177,-0.02,-0.09,-0.97
26196,0.06,-0.09,-0.95
26214,0.03,-0.09,-0.97
26233,0.05,-0.10,-0.98
26251,0.05,-0.09,-0.95
26270,0.04,-0.09,-0.96
26288,0.07,-0.09,-0.97
26307,0.04,-0.08,-0.96
26325,0.01,-0.07,-0.97
26344,0.06,-0.08,-1.02
26362,0.06,-0.07,-1.02
26381,0.09,-0.07,-1.04
26399,0.14,-0.07,-1.06
26418,0.16,-0.06,-1.09
26436,0.22,-0.06,-1.12
26455,0.27,-0.06,-1.12
26473,0.26,-0.04,-1.12
26492,0.29,-0.05,-1.17
26510,0.31,-0.04,-1.16
26529,0.31,-0.02,-1.14
26547,0.39,-0.02,-1.18
26566,0.39,-0.01,-1.21
26584,0.46,-0.01,-1.20
26603,0.53,-0.02,-1.21
26621,0.58,-0.00,-1.21
26640,0.52,0.02,-1.15
26658,0.50,0.03,-1.13
26677,0.51,0.03,-1.13
26695,0.51,0.03,-1.10
26714,0.51,0.05,-1.05
26732,0.44,0.07,-0.98
26751,0.37,0.08,-0.98
26769,0.39,0.08,-1.05
26788,0.44,0.07,-1.10
26806,0.39,0.09,-1.13
26825,0.37,0.11,-1.07
26843,0.34,0.12,-1.03
26862,0.25,0.14,-1.00
26880,0.20,0.18,-0.97
26899,0.13,0.18,-0.85
26917,0.12,0.19,-0.88
26936,0.13,0.19,-0.87
26954,0.10,0.18,-0.89
26973,0.13,0.17,-0.91
26991,0.11,0.17,-0.88
27010,-0.00,0.22,-0.89
27028,-0.04,0.24,-0.88
27047,-0.15,0.28,-0.93
27065,-0.27,0.29,-0.87
27084,-0.34,0.29,-0.83
27102,-0.37,0.26,-0.88
27121,-0.37,0.25,-0.90
27139,-0.38,0.23,-0.85
27158,-0.32,0.21,-0.89
27176,-0.37,0.21,-0.94
27195,-0.44,0.22,-0.89
27213,-0.50,0.23,-0.85
27232,-0.54,0.21,-0.81
27250,-0.51,0.19,-0.79
27269,-0.45,0.12,-0.80
27287,-0.54,0.16,-0.78
27306,-0.55,0.16,-0.70
27324,-0.55,0.14,-0.68
27343,-0.96,0.14,-0.69
27361,-0.88,0.11,-0.62
27380,-0.93,0.15,-0.71
27398,-0.96,0.12,-0.62
27417,-0.90,0.13,-0.69
27435,-0.97,0.09,-0.64
27454,-0.92,0.05,-0.68
27472,-0.88,0.03,-0.70
27491,-0.88,0.02,-0.71
27509,-0.83,0.01,-0.79
27528,-0.83,0.03,-0.82
27546,-0.86,0.01,-0.81
27565,-0.83,0.01,-0.84
27583,-0.82,0.01,-0.84
27602,-0.87,0.01,-0.79
27620,-0.86,0.00,-0.86
27639,-0.84,0.01,-0.84
27657,-0.74,-0.01,-0.87
27676,-0.63,-0.04,-0.93
27694,-0.64,-0.02,-0.91
27713,-0.64,-0.03,-0.92
27731,-0.56,-0.06,-0.94
27750,-0.48,-0.08,-0.94
27768,-0.44,-0.09,-0.94
27787,-0.42,-0.09,-0.95
27805,-0.45,-0.08,-0.90
27824,-0.48,-0.07,-0.89
27842,-0.45,-0.08,-0.85
27861,-0.47,-0.09,-0.82
27879,-0.51,-0.09,-0.84
27898,-0.54,-0.09,-0.86
27916,-0.51,-0.09,-0.83
27935,-0.45,-0.10,-0.88
27953,-0.45,-0.10,-0.93
27972,-0.45,-0.09,-0.87
27990,-0.45,-0.09,-0.90
28009,-0.48,-0.08,-0.94
28027,-0.47,-0.08,-0.92
28046,-0.46,-0.08,-0.93
28064,-0.44,-0.08,-0.94
28083,-0.39,-0.09,-0.95
28101,-0.37,-0.10,-0.98
28120,-0.34,-0.11,-0.96
28138,-0.32,-0.11,-0.90
28157,-0.37,-0.12,-0.92
28175,-0.37,-0.12,-0.91
28194,-0.39,-0.12,-0.85
28212,-0.44,-0.11,-0.85
28231,-0.43,-0.11,-0.88
28249,-0.40,-0.11,-0.87
28268,-0.38,-0.12,-0.87
28286,-0.38,-0.12,-0.90
28305,-0.36,-0.13,-0.91
28323,-0.35,-0.12,-0.88
28342,-0.35,-0.13,-0.90
28360,-0.38,-0.12,-0.90
28379,-0.36,-0.13,-0.90
28397,-0.37,-0.12,-0.91
28416,-0.37,-0.13,-0.92
28434,-0.34,-0.14,-0.92
28453,-0.39,-0.13,-0.91
28471,-0.39,-0.13,-0.90
28490,-0.44,-0.12,-0.91
28508,-0.44,-0.11,-0.91
28527,-0.45,-0.10,-0.87
28545,-0.39,-0.11,-0.91
28564,-0.36,-0.12,-0.92
28582,-0.40,-0.12,-0.90
28601,-0.40,-0.11,-0.89
28619,-0.43,-0.11,-0.90
28638,-0.45,-0.11,-0.88
28656,-0.45,-0.11,-0.88
28675,-0.42,-0.13,-0.89
28693,-0.40,-0.13,-0.87
28712,-0.44,-0.13,-0.86
28730,-0.46,-0.12,-0.84
28749,-0.46,-0.12,-0.84
28767,-0.47,-0.13,-0.85
28786,-0.45,-0.13,-0.85
28804,-0.44,-0.13,-0.84
28823,-0.46,-0.12,-0.86
28841,-0.49,-0.12,-0.84
28860,-0.52,-0.12,-0.82
28878,-0.55,-0.11,-0.82
28897,-0.60,-0.11,-0.81
28915,-0.63,-0.10,-0.80
28934,-0.73,-0.16,-0.79
28952,-0.90,-0.06,-0.78
28971,-1.03,-0.00,-0.76
28989,-1.10,0.04,-0.79
29008,-1.15,0.07,-0.78
29026,-1.05,0.08,-0.87
29045,-0.92,0.08,-0.86
29063,-0.90,0.09,-0.87
29082,-0.86,0.09,-0.92
29100,-0.86,0.10,-0.86
29119,-0.80,0.08,-0.85
29137,-0.76,0.07,-0.81
29156,-0.78,0.08,-0.73
29174,-0.86,0.11,-0.69
29193,-0.93,0.14,-0.71
29211,-0.95,0.17,-0.66
29230,-0.95,0.19,-0.64
29248,-0.96,0.16,-0.68
29267,-0.84,0.22,-0.75
29285,-0.77,0.24,-0.78
29304,-0.66,0.25,-0.77
29322,-0.69,0.28,-0.82
29341,-0.62,0.28,-0.81
29359,-0.59,0.29,-0.78
29378,-0.60,0.33,-0.73
29396,-0.60,0.37,-0.70
29415,-0.56,0.40,-0.77
29433,-0.53,0.38,-0.84
29452,-0.45,0.46,-0.79
29470,-0.46,0.44,-0.73
29489,-0.15,0.41,-0.82
29507,-0.07,0.38,-0.67
29526,-0.13,0.39,-0.75
29544,-0.16,0.39,-0.78
29563,-0.11,0.43,-0.80
29581,-0.09,0.50,-0.80
29600,-0.01,0.57,-0.92
29618,0.10,0.51,-1.18
29637,0.18,0.59,-1.25
29655,0.37,0.57,-1.18
29674,0.51,0.48,-1.02
29692,0.77,0.36,-1.04
29711,0.73,0.28,-1.04
29729,0.59,0.29,-0.95
29748,0.70,0.33,-0.93
29766,0.84,0.31,-0.98
29785,0.98,0.25,-1.12
29803,1.12,0.22,-1.26
29822,1.23,0.13,-1.27
29840,1.19,0.08,-1.25
29859,1.15,0.02,-1.15
29877,1.08,-0.03,-1.07
29896,0.97,-0.04,-0.98
29914,0.76,-0.03,-0.94
29933,0.71,-0.06,-0.91
29951,0.64,-0.01,-0.92
29970,0.54,0.01,-1.01
29988,0.52,0.02,-1.02
30007,0.33,-0.00,-1.01
30025,0.40,-0.01,-0.94
30044,0.30,0.00,-1.10
30062,0.40,-0.03,-1.04
30081,0.39,-0.02,-0.98
30099,0.33,-0.04,-1.07
30118,0.37,-0.06,-1.19
30136,0.33,-0.07,-1.06
30155,0.21,-0.05,-1.09
30173,0.20,-0.05,-1.16
30192,0.17,-0.04,-1.09
30210,0.13,-0.05,-1.11
30229,0.13,-0.04,-1.09
30247,0.11,-0.02,-1.06
30266,0.06,-0.04,-1.03
30284,0.02,-0.03,-1.02
30303,-0.01,-0.04,-0.99
30321,0.03,-0.07,-1.02
30340,0.05,-0.08,-1.01
30358,0.04,-0.09,-0.95
30377,0.03,-0.09,-0.93
30395,0.00,-0.08,-0.95
30414,0.03,-0.08,-0.92
30432,0.06,-0.08,-0.92
30451,0.06,-0.08,-0.96
30469,0.06,-0.07,-0.95
30488,0.03,-0.06,-0.94
30506,0.07,-0.06,-0.94
30525,0.09,-0.08,-0.96
30543,0.12,-0.09,-0.96
30562,0.18,-0.11,-0.96
30580,0.10,-0.09,-1.00
30599,0.08,-0.09,-0.99
30617,0.07,-0.05,-0.95
30636,0.03,-0.04,-0.92
30654,0.03,-0.04,-0.97
30673,0.07,-0.05,-0.99
30691,0.09,-0.05,-0.98
30710,0.10,-0.05,-1.00
30728,0.12,-0.07,-1.01
30747,0.17,-0.08,-0.97
30765,0.23,-0.09,-0.96
30784,0.19,-0.08,-0.98
30802,0.15,-0.06,-0.97
30821,0.13,-0.05,-0.96
30839,0.08,-0.03,-0.95
30858,0.08,-0.03,-0.99
30876,0.10,-0.05,-1.00
30895,0.14,-0.06,-0.98
30913,0.10,-0.06,-0.99
30932,0.16,-0.07,-0.99
30950,0.22,-0.08,-0.96
30969,0.20,-0.08,-0.96
30987,0.18,-0.07,-0.98
31006,0.17,-0.05,-0.97
31024,0.13,-0.03,-0.97
31043,0.14,-0.03,-1.02
31061,0.18,-0.02,-1.01
31080,0.23,-0.04,-1.01
31098,0.27,-0.05,-1.04
31117,0.30,-0.05,-1.00
31135,0.32,-0.04,-1.02
31154,0.32,-0.03,-1.03
31172,0.43,-0.04,-1.03
31191,0.46,-0.04,-1.05
31209,0.45,-0.02,-1.09
31228,0.47,-0.00,-1.07
31246,0.48,0.03,-1.05
31265,0.53,0.03,-1.09
31283,0.57,0.04,-1.14
31302,0.65,0.03,-1.17
31320,0.70,0.03,-1.16
31339,0.71,0.05,-1.14
31357,0.73,0.06,-1.16
31376,0.75,0.08,-1.14
31394,0.71,0.10,-1.14
31413,0.71,0.13,-1.10
31431,0.67,0.15,-1.08
31450,0.67,0.17,-1.07
31468,0.74,0.15,-1.09
31487,0.74,0.17,-1.09
31505,0.71,0.18,-1.05
31524,0.71,0.19,-1.09
31542,0.67,0.23,-0.98
31561,0.73,0.24,-0.89
31579,0.71,0.30,-0.94
31598,0.53,0.34,-0.95
31616,0.33,0.42,-0.93
31635,0.20,0.46,-0.81
31653,0.08,0.47,-0.76
31672,0.03,0.44,-0.78
31690,-0.02,0.43,-0.95
31709,0.02,0.40,-1.06
31727,0.04,0.42,-0.95
31746,-0.12,0.48,-0.84
31764,-0.31,0.53,-0.87
31783,-0.45,0.52,-0.96
31801,-0.56,0.48,-1.10
31820,-0.62,0.47,-1.10
31838,-0.64,0.43,-1.05
31857,-0.64,0.40,-1.00
31875,-0.67,0.38,-1.01
31894,-0.66,0.33,-1.04
31912,-0.54,0.27,-1.05
31931,-0.47,0.26,-0.99
31949,-0.35,0.21,-0.92
31968,-0.27,0.16,-0.90
31986,-0.21,0.20,-0.79
32005,-0.49,0.21,-0.73
32023,-0.37,0.17,-0.76
32042,-0.70,0.23,-0.69
32060,-0.78,0.21,-0.56
32079,-0.77,0.22,-0.63
32097,-0.92,0.21,-0.55
32116,-0.85,0.18,-0.59
32134,-0.89,0.13,-0.46
32153,-0.77,0.06,-0.53
32171,-0.69,0.01,-0.61
32190,-0.73,-0.00,-0.56
32208,-0.79,-0.00,-0.59
32227,-0.80,0.03,-0.61
32245,-0.91,0.05,-0.63
32264,-0.99,0.09,-0.64
32282,-1.09,0.11,-0.69
32301,-1.08,0.10,-0.74
32319,-1.03,0.08,-0.73
32338,-0.88,0.03,-0.74
32356,-0.77,-0.01,-0.77
32375,-0.78,-0.02,-0.83
32393,-0.79,-0.02,-0.82
32412,-0.80,-0.01,-0.80
32430,-0.79,-0.01,-0.83
32449,-0.77,-0.02,-0.82
32467,-0.75,-0.02,-0.84
32486,-0.70,-0.03,-0.82
32504,-0.65,-0.05,-0.82
32523,-0.65,-0.05,-0.76
32541,-0.66,-0.06,-0.76
32560,-0.66,-0.06,-0.79
32578,-0.64,-0.06,-0.80
32597,-0.61,-0.08,-0.80
32615,-0.58,-0.09,-0.85
32634,-0.57,-0.08,-0.86
32652,-0.51,-0.09,-0.82
32671,-0.51,-0.09,-0.87
32689,-0.56,-0.09,-0.91
32708,-0.53,-0.09,-0.87
32726,-0.49,-0.10,-0.89
32745,-0.47,-0.11,-0.92
32763,-0.43,-0.12,-0.93
32782,-0.39,-0.13,-0.86
32800,-0.43,-0.13,-0.89
32819,-0.45,-0.12,-0.91
32837,-0.45,-0.12,-0.82
32856,-0.51,-0.11,-0.83
32874,-0.52,-0.12,-0.85
32893,-0.51,-0.11,-0.82
32911,-0.48,-0.12,-0.83
32930,-0.46,-0.13,-0.88
32948,-0.44,-0.12,-0.86
32967,-0.39,-0.14,-0.86
32985,-0.39,-0.15,-0.90
33004,-0.42,-0.14,-0.88
33022,-0.43,-0.13,-0.83
33041,-0.42,-0.14,-0.87
33059,-0.41,-0.14,-0.86
33078,-0.43,-0.14,-0.84
33096,-0.47,-0.12,-0.83
33115,-0.49,-0.12,-0.83
33133,-0.42,-0.13,-0.86
33152,-0.45,-0.13,-0.85
33170,-0.48,-0.12,-0.88
33189,-0.45,-0.13,-0.87
33207,-0.46,-0.13,-0.87
33226,-0.48,-0.13,-0.89
33244,-0.48,-0.12,-0.86
33263,-0.49,-0.12,-0.83
33281,-0.49,-0.11,-0.85
33300,-0.51,-0.11,-0.85
33318,-0.53,-0.10,-0.85
33337,-0.46,-0.12,-0.85
33355,-0.48,-0.12,-0.85
33374,-0.46,-0.13,-0.85
33392,-0.47,-0.12,-0.86
33411,-0.49,-0.11,-0.86
33429,-0.49,-0.11,-0.84
33448,-0.53,-0.10,-0.84
33466,-0.52,-0.10,-0.84
33485,-0.52,-0.10,-0.83
33503,-0.51,-0.11,-0.85
33522,-0.48,-0.11,-0.84
33540,-0.51,-0.11,-0.85
33559,-0.55,-0.09,-0.85
33577,-0.59,-0.09,-0.84
33596,-0.65,-0.07,-0.83
33614,-0.69,-0.06,-0.82
33633,-0.73,-0.04,-0.83
33651,-0.77,-0.02,-0.81
33670,-0.82,-0.01,-0.79
33688,-0.92,0.04,-0.83
33707,-0.87,0.01,-0.81
33725,-0.96,0.02,-0.82
33744,-0.96,0.04,-0.84
33762,-0.94,0.05,-0.86
33781,-0.89,0.05,-0.77
33799,-0.90,0.10,-0.84
33818,-0.98,0.11,-0.78
33836,-1.08,0.16,-0.66
33855,-1.16,0.22,-0.56
33873,-1.18,0.25,-0.54
33892,-1.13,0.22,-0.65
33910,-1.02,0.22,-0.75
33929,-1.00,0.24,-0.66
33947,-0.93,0.26,-0.63
33966,-0.95,0.28,-0.62
33984,-0.91,0.28,-0.63
34003,-0.89,0.30,-0.68
34021,-0.85,0.34,-0.69
34040,-0.90,0.39,-0.64
34058,-0.87,0.42,-0.67
34077,-0.82,0.49,-0.61
34095,-0.82,0.50,-0.72
34114,-0.87,0.51,-0.59
34132,-0.76,0.56,-0.59
34151,-0.74,0.61,-0.64
34169,-0.74,0.64,-0.60
34188,-0.69,0.68,-0.55
34206,-0.60,0.70,-0.51
34225,-0.51,0.72,-0.50
34243,-0.38,0.74,-0.65
34262,-0.27,0.71,-0.77
34280,-0.10,0.67,-0.93
34299,-0.10,0.62,-0.92
34317,0.17,0.63,-1.00
34336,0.44,0.70,-1.08
34354,0.52,0.70,-0.99
34373,0.36,0.70,-1.08
34391,0.54,0.67,-1.32
34410,0.84,0.50,-1.40
34428,1.13,0.32,-1.50
34447,1.27,0.21,-1.40
34465,1.32,0.10,-1.49
34484,1.19,0.10,-1.42
34502,1.12,0.10,-1.26
34521,1.09,0.06,-1.24
34539,1.03,0.06,-1.18
34558,0.96,0.03,-1.13
34576,0.88,0.00,-1.14
34595,0.87,-0.04,-1.13
34613,0.85,-0.09,-1.10
34632,0.75,-0.11,-1.04
34650,0.66,-0.13,-1.00
34669,0.62,-0.14,-1.00
34687,0.46,-0.11,-0.93
34706,0.32,-0.09,-0.98
34724,0.24,-0.10,-0.90
34743,0.15,-0.08,-0.97
34761,0.08,-0.07,-0.98
34780,0.07,-0.07,-0.99
34798,0.02,-0.10,-1.01
34817,0.14,-0.10,-1.11
34835,0.01,-0.11,-1.12
34854,-0.04,-0.12,-1.19
34872,0.04,-0.13,-1.18
34891,-0.01,-0.11,-1.12
34909,-0.06,-0.08,-1.14
34928,-0.08,-0.07,-1.12
34946,-0.09,-0.07,-1.05
34965,-0.12,-0.09,-1.06
34983,-0.08,-0.10,-1.05
35002,-0.07,-0.12,-0.99
35020,-0.07,-0.13,-0.96
35039,-0.08,-0.13,-0.95
35057,-0.07,-0.13,-0.90
35076,-0.08,-0.13,-0.90
35094,-0.08,-0.13,-0.90
35113,-0.02,-0.14,-0.89
35131,-0.00,-0.15,-0.93
35150,-0.02,-0.14,-0.95
35168,0.01,-0.15,-0.96
35187,0.04,-0.16,-1.00
35205,0.01,-0.16,-1.00
35224,-0.00,-0.14,-0.98
35242,-0.02,-0.13,-0.96
35261,-0.06,-0.12,-0.96
35279,-0.06,-0.12,-0.95
35298,-0.04,-0.13,-0.94
35316,-0.06,-0.13,-0.96
35335,-0.05,-0.14,-0.97
35353,-0.03,-0.14,-0.97
35372,-0.00,-0.15,-0.97
35390,-0.00,-0.15,-0.96
35409,0.01,-0.15,-0.95
35427,-0.00,-0.14,-0.95
35446,0.00,-0.14,-0.96
35464,0.02,-0.14,-0.97
35483,0.00,-0.14,-0.98
35501,-0.05,-0.12,-0.99
35520,-0.08,-0.11,-0.97
35538,-0.08,-0.11,-0.98
35557,-0.07,-0.13,-0.98
35575,-0.03,-0.14,-0.96
35594,0.02,-0.16,-0.93
35612,0.02,-0.16,-0.95
35631,0.02,-0.16,-0.97
35649,0.05,-0.15,-0.92
35668,-0.03,-0.13,-0.95
35686,-0.04,-0.13,-0.99
35705,-0.04,-0.12,-0.96
35723,-0.07,-0.11,-0.98
35742,-0.08,-0.12,-0.99
35760,-0.03,-0.13,-0.99
35779,-0.02,-0.14,-0.96
35797,-0.05,-0.14,-1.01
35816,-0.06,-0.13,-0.99
35834,-0.03,-0.13,-0.98
35853,-0.05,-0.12,-0.99
35871,-0.00,-0.12,-0.98
35890,0.01,-0.12,-0.97
35908,0.04,-0.12,-1.00
35927,0.12,-0.15,-1.03
35945,0.14,-0.13,-1.07
35964,0.17,-0.11,-1.07
35982,0.23,-0.10,-1.08
36001,0.28,-0.11,-1.12
36019,0.30,-0.09,-1.13
36038,0.38,-0.09,-1.11
36056,0.44,-0.08,-1.14
36075,0.45,-0.07,-1.19
36093,0.49,-0.06,-1.16
36112,0.55,-0.07,-1.19
36130,0.60,-0.07,-1.19
36149,0.60,-0.06,-1.14
36167,0.56,-0.04,-1.15
36186,0.55,-0.03,-1.14
36204,0.58,-0.02,-1.08
36223,0.62,-0.02,-1.06
36241,0.64,-0.02,-1.06
36260,0.66,-0.01,-1.00
36278,0.65,0.00,-1.01
36297,0.63,0.02,-1.03
36315,0.56,0.07,-1.04
36334,0.41,0.12,-1.03
36352,0.27,0.17,-1.07
36371,0.24,0.18,-1.09
36389,0.16,0.19,-1.14
36408,0.12,0.20,-1.12
36426,0.11,0.18,-1.12
36445,0.09,0.18,-1.08
36463,0.09,0.18,-1.01
36482,0.05,0.18,-1.00
36500,0.05,0.18,-0.98
36519,0.08,0.17,-0.93
36537,0.02,0.18,-0.95
36556,-0.08,0.18,-1.01
36574,-0.10,0.17,-1.01
36593,-0.17,0.16,-1.00
36611,-0.31,0.17,-1.03
36630,-0.29,0.14,-0.98
36648,-0.25,0.13,-0.93
36667,-0.24,0.11,-0.87
36685,-0.17,0.08,-0.85
36704,-0.27,0.10,-0.85
36722,-0.24,0.08,-0.78
36741,-0.22,0.07,-0.75
36759,-0.25,0.06,-0.73
36778,-0.20,0.05,-0.70
36796,-0.21,0.06,-0.67
36815,-0.47,0.08,-0.72
36833,-0.63,0.14,-0.58
36852,-0.73,0.14,-0.68
36870,-0.81,0.09,-0.64
36889,-0.72,0.05,-0.54
36907,-0.61,0.04,-0.53
36926,-0.58,0.01,-0.51
36944,-0.63,-0.01,-0.51
36963,-0.62,0.02,-0.56
36981,-0.75,-0.02,-0.63
37000,-0.77,-0.00,-0.64
37018,-0.80,0.01,-0.65
37037,-0.95,0.01,-0.63
37055,-0.98,0.00,-0.62
37074,-1.00,-0.00,-0.67
37092,-1.06,-0.01,-0.70
37111,-1.04,-0.02,-0.75
37129,-1.01,-0.03,-0.75
37148,-0.92,-0.05,-0.78
37166,-0.88,-0.06,-0.84
37185,-0.86,-0.06,-0.84
37203,-0.84,-0.05,-0.84
37222,-0.83,-0.01,-0.83
37240,-0.80,-0.01,-0.90
37259,-0.82,-0.01,-0.91
37277,-0.74,-0.03,-0.96
37296,-0.73,-0.03,-0.96
37314,-0.70,-0.04,-0.94
37333,-0.72,-0.05,-0.95
37351,-0.67,-0.06,-0.92
37370,-0.65,-0.07,-0.91
37388,-0.61,-0.08,-0.93
37407,-0.55,-0.09,-0.88
37425,-0.52,-0.09,-0.90
37444,-0.55,-0.09,-0.88
37462,-0.59,-0.08,-0.84
37481,-0.60,-0.09,-0.86
37499,-0.59,-0.09,-0.84
37518,-0.54,-0.09,-0.87
37536,-0.48,-0.10,-0.90
37555,-0.45,-0.11,-0.89
37573,-0.48,-0.10,-0.88
37592,-0.46,-0.11,-0.87
37610,-0.50,-0.11,-0.87
37629,-0.53,-0.10,-0.88
37647,-0.51,-0.10,-0.86
37666,-0.43,-0.11,-0.90
37684,-0.38,-0.13,-0.92
37703,-0.44,-0.11,-0.90
37721,-0.43,-0.11,-0.86
37740,-0.38,-0.13,-0.86
37758,-0.39,-0.13,-0.91
37777,-0.43,-0.12,-0.86
37795,-0.45,-0.12,-0.84
37814,-0.42,-0.12,-0.88
37832,-0.41,-0.13,-0.89
37851,-0.44,-0.13,-0.86
37869,-0.43,-0.13,-0.86
37888,-0.46,-0.12,-0.90
37906,-0.40,-0.11,-0.77
37925,-0.45,-0.10,-0.90
37943,-0.44,-0.10,-0.84
37962,-0.39,-0.12,-0.86
37980,-0.37,-0.14,-0.89
37999,-0.39,-0.13,-0.88
38017,-0.41,-0.13,-0.86
38036,-0.42,-0.13,-0.89
38054,-0.44,-0.12,-0.87
38073,-0.43,-0.13,-0.83
38091,-0.46,-0.13,-0.85
38110,-0.47,-0.12,-0.86
38128,-0.47,-0.12,-0.85
38147,-0.48,-0.12,-0.88
38165,-0.45,-0.12,-0.89
38184,-0.43,-0.12,-0.87
38202,-0.48,-0.11,-0.86
38221,-0.48,-0.12,-0.88
38239,-0.50,-0.11,-0.86
38258,-0.54,-0.11,-0.85
38276,-0.54,-0.11,-0.86
38295,-0.55,-0.11,-0.86
38313,-0.56,-0.11,-0.82
38332,-0.61,-0.10,-0.84
38350,-0.64,-0.09,-0.82
38369,-0.68,-0.08,-0.79
38387,-0.74,-0.07,-0.82
38406,-0.78,-0.07,-0.81
38424,-0.80,-0.06,-0.82
38443,-0.84,-0.04,-0.82
38461,-0.89,-0.02,-0.83
38480,-0.90,-0.01,-0.85
38498,-0.88,-0.00,-0.86
38517,-0.86,0.00,-0.87
38535,-0.87,0.02,-0.84
38554,-0.89,0.03,-0.84
38572,-0.87,0.04,-0.86
38591,-0.87,0.05,-0.85
38609,-0.88,0.07,-0.85
38628,-0.90,0.09,-0.84
38646,-0.87,0.10,-0.80
38665,-0.89,0.11,-0.79
38683,-0.84,0.11,-0.81
38702,-0.83,0.13,-0.80
38720,-0.87,0.16,-0.79
38739,-0.88,0.18,-0.80
38757,-0.85,0.20,-0.79
38776,-0.85,0.22,-0.73
38794,-0.77,0.20,-0.73
38813,-0.72,0.22,-0.80
38831,-0.74,0.26,-0.76
38850,-0.81,0.17,-0.75
38868,-0.67,0.26,-0.81
38887,-0.78,0.36,-0.71
38905,-0.77,0.43,-0.68
38924,-0.68,0.45,-0.74
38942,-0.64,0.49,-0.62
38961,-0.55,0.51,-0.59
38979,-0.45,0.53,-0.62
38998,-0.33,0.52,-0.58
39016,-0.28,0.52,-0.59
39035,-0.22,0.50,-0.59
39053,-0.16,0.50,-0.58
39072,-0.09,0.53,-0.63
39090,-0.06,0.51,-0.75
39109,0.09,0.57,-1.04
39127,0.44,0.56,-1.21
39146,0.57,0.52,-1.22
39164,0.47,0.48,-1.11
39183,0.39,0.46,-0.97
39201,0.37,0.51,-0.86
39220,0.35,0.50,-0.89
39238,0.67,0.47,-1.19
39257,0.88,0.56,-1.35
39275,1.09,0.41,-1.43
39294,0.93,0.36,-1.31
39312,0.86,0.16,-1.13
39331,0.84,0.08,-1.08
39349,1.08,0.09,-1.25
39368,1.33,0.08,-1.30
39386,1.11,0.11,-1.21
39405,0.87,0.14,-1.12
39423,0.88,0.10,-1.12
39442,0.81,0.09,-1.12
39460,0.79,0.05,-1.16
39479,0.60,0.09,-1.03
39497,0.42,0.08,-0.98
39516,0.47,0.05,-0.91
39534,0.38,0.01,-1.00
39553,0.40,0.01,-1.04
39571,0.32,0.04,-0.94
39590,0.20,0.03,-1.08
39608,0.32,-0.03,-1.06
39627,0.18,-0.01,-1.09
39645,0.13,-0.01,-1.19
39664,0.17,-0.01,-1.15
39682,0.11,-0.03,-1.12
39701,0.09,-0.03,-1.13
39719,0.05,-0.04,-1.09
39738,-0.01,-0.03,-1.04
39756,-0.06,-0.01,-0.98
39775,-0.02,-0.02,-1.00
39793,-0.11,-0.03,-0.98
39812,-0.13,-0.03,-0.99
39830,-0.08,-0.05,-1.00
39849,-0.04,-0.07,-1.01
39867,-0.03,-0.07,-1.00
39886,0.01,-0.09,-0.97
39904,-0.01,-0.08,-0.98
39923,-0.03,-0.07,-0.97
39941,-0.02,-0.07,-0.94
39960,0.01,-0.07,-0.94
39978,0.01,-0.07,-0.91
39997,0.01,-0.07,-0.95
40015,0.05,-0.08,-0.97
40034,0.07,-0.08,-0.93
40052,0.06,-0.08,-0.92
40071,0.08,-0.09,-0.99
40089,0.06,-0.08,-0.99
40108,0.04,-0.07,-0.94
40126,-0.01,-0.05,-0.99
40145,-0.01,-0.05,-1.01
40163,0.02,-0.05,-0.98
40182,0.02,-0.06,-0.95
40200,0.03,-0.07,-1.00
40219,0.06,-0.08,-0.99
40237,0.04,-0.07,-0.98
40256,0.02,-0.07,-0.99
40274,0.00,-0.07,-1.00
40293,0.01,-0.07,-0.99
40311,0.01,-0.06,-0.97
40330,-0.01,-0.07,-0.98
40348,-0.02,-0.07,-0.99
40367,-0.01,-0.06,-0.95
40385,-0.02,-0.06,-0.93
40404,-0.03,-0.06,-0.95
40422,-0.02,-0.07,-0.98
40441,0.02,-0.08,-0.95
40459,0.05,-0.09,-0.95
40478,0.06,-0.09,-0.97
40496,0.05,-0.08,-0.96
40515,0.02,-0.07,-0.94
40533,0.03,-0.07,-0.96
40552,0.04,-0.07,-0.96
40570,0.06,-0.08,-0.97
40589,0.07,-0.08,-0.97
40607,0.08,-0.08,-0.97
40626,0.10,-0.08,-0.98
40644,0.11,-0.07,-1.00
40663,0.15,-0.07,-0.97
40681,0.10,-0.04,-0.95
40700,0.17,-0.05,-1.02
40718,0.19,-0.03,-1.01
40737,0.25,-0.03,-1.08
40755,0.31,-0.01,-1.09
40774,0.34,-0.00,-1.09
40792,0.37,0.00,-1.14
40811,0.43,0.02,-1.15
40829,0.53,0.01,-1.16
40848,0.56,0.02,-1.20
40866,0.55,0.03,-1.19
40885,0.59,0.04,-1.17
40903,0.56,0.04,-1.14
40922,0.61,0.04,-1.13
40940,0.63,0.04,-1.10
40959,0.63,0.05,-1.08
40977,0.63,0.05,-1.02
40996,0.59,0.08,-1.01
41014,0.57,0.10,-0.98
41033,0.58,0.11,-0.99
41051,0.52,0.14,-1.04
41070,0.43,0.17,-1.03
41088,0.38,0.21,-1.02
41107,0.38,0.21,-1.01
41125,0.43,0.20,-1.02
41144,0.48,0.19,-1.04
41162,0.45,0.20,-0.99
41181,0.37,0.24,-1.02
41199,0.37,0.24,-0.99
41218,0.39,0.26,-0.92
41236,0.35,0.27,-1.01
41255,0.23,0.29,-1.06
41273,0.20,0.30,-1.07
41292,0.18,0.35,-1.03
41310,0.22,0.36,-0.93
41329,0.13,0.39,-0.88
41347,-0.07,0.45,-0.88
41366,-0.03,0.44,-0.89
41384,-0.00,0.43,-0.87
41403,-0.21,0.48,-0.93
41421,-0.22,0.48,-1.01
41440,-0.23,0.49,-1.03
41458,-0.32,0.49,-1.05
41477,-0.42,0.50,-1.02
41495,-0.36,0.50,-1.06
41514,-0.49,0.56,-0.91
41532,-0.70,0.57,-0.79
41551,-0.78,0.51,-0.79
41569,-0.66,0.40,-0.74
41588,-0.60,0.35,-0.69
41606,-0.57,0.27,-0.78
41625,-0.46,0.24,-0.73
41643,-0.64,0.27,-0.79
41662,-0.67,0.25,-0.72
41680,-0.68,0.29,-0.66
41699,-0.98,0.32,-0.58
41717,-1.19,0.32,-0.55
41736,-0.99,0.22,-0.59
41754,-0.86,0.18,-0.61
41773,-0.93,0.17,-0.62
41791,-0.95,0.12,-0.65
41810,-0.91,0.12,-0.68
41828,-0.89,0.13,-0.64
41847,-0.96,0.13,-0.69
41865,-0.92,0.11,-0.73
41884,-0.93,0.11,-0.74
41902,-0.96,0.10,-0.74
41921,-0.96,0.10,-0.74
41939,-0.98,0.10,-0.71
41958,-0.96,0.09,-0.73
41976,-0.89,0.08,-0.81
41995,-0.86,0.09,-0.82
42013,-0.78,0.08,-0.86
42032,-0.79,0.05,-0.85
42050,-0.71,0.03,-0.89
42069,-0.67,0.02,-0.87
42087,-0.62,-0.00,-0.89
42106,-0.58,-0.01,-0.89
42124,-0.56,-0.02,-0.86
42143,-0.52,-0.03,-0.85
42161,-0.53,-0.04,-0.90
42180,-0.51,-0.05,-0.87
42198,-0.48,-0.06,-0.86
42217,-0.51,-0.06,-0.86
42235,-0.49,-0.06,-0.84
42254,-0.47,-0.07,-0.87
42272,-0.46,-0.07,-0.86
42291,-0.46,-0.07,-0.89
42309,-0.42,-0.07,-0.91
42328,-0.37,-0.08,-0.93
42346,-0.35,-0.08,-0.95
42365,-0.34,-0.08,-0.95
42383,-0.38,-0.07,-0.93
42402,-0.43,-0.06,-0.93
42420,-0.43,-0.05,-0.90
42439,-0.44,-0.06,-0.91
42457,-0.44,-0.06,-0.93
42476,-0.42,-0.07,-0.92
42494,-0.39,-0.07,-0.90
42513,-0.42,-0.07,-0.91
42531,-0.40,-0.08,-0.90
42550,-0.42,-0.08,-0.88
42568,-0.48,-0.07,-0.88
42587,-0.50,-0.06,-0.86
42605,-0.51,-0.05,-0.85
42624,-0.47,-0.06,-0.90
42642,-0.42,-0.07,-0.89
42661,-0.40,-0.07,-0.89
42679,-0.38,-0.08,-0.91
42698,-0.35,-0.09,-0.89
42716,-0.37,-0.09,-0.86
42735,-0.42,-0.08,-0.88
42753,-0.47,-0.06,-0.86
42772,-0.47,-0.06,-0.84
42790,-0.46,-0.07,-0.86
42809,-0.45,-0.08,-0.85
42827,-0.44,-0.09,-0.86
42846,-0.44,-0.09,-0.86
42864,-0.48,-0.08,-0.86
42883,-0.49,-0.08,-0.85
42901,-0.52,-0.06,-0.86
42920,-0.53,-0.05,-0.86
42938,-0.56,-0.02,-0.89
42957,-0.63,-0.02,-0.88
42975,-0.66,-0.00,-0.78
42994,-0.68,0.03,-0.71
43012,-0.73,0.00,-0.86
43031,-0.75,0.01,-0.85
43049,-0.79,0.05,-0.74
43068,-0.82,0.06,-0.90
43086,-0.81,0.06,-0.85
43105,-0.82,0.08,-0.79
43123,-0.80,0.08,-0.92
43142,-0.81,0.07,-0.85
43160,-0.78,0.08,-0.82
43179,-0.75,0.07,-0.86
43197,-0.76,0.07,-0.83
43216,-0.76,0.09,-0.84
43234,-0.78,0.08,-0.80
43253,-0.83,0.12,-0.80
43271,-0.86,0.16,-0.84
43290,-0.87,0.15,-0.82
43308,-0.84,0.17,-0.89
43327,-0.85,0.20,-0.82
43345,-0.81,0.21,-0.85
43364,-0.80,0.23,-0.87
43382,-0.79,0.24,-0.84
43401,-0.75,0.27,-0.89
43419,-0.76,0.32,-0.84
43438,-0.80,0.34,-0.84
43456,-0.77,0.35,-0.88
43475,-0.69,0.39,-0.79
43493,-0.64,0.35,-0.88
43512,-0.66,0.38,-0.78
43530,-0.56,0.42,-0.70
43549,-0.54,0.41,-0.68
43567,-0.54,0.46,-0.71
43586,-0.55,0.46,-0.64
43604,-0.53,0.52,-0.67
43623,-0.40,0.54,-0.64
43641,-0.32,0.54,-0.70
43660,-0.27,0.55,-0.71
43678,-0.25,0.54,-0.60
43697,-0.10,0.54,-0.59
43715,-0.00,0.53,-0.69
43734,0.02,0.55,-0.81
43752,0.22,0.55,-0.93
43771,0.48,0.48,-1.07
43789,0.68,0.39,-1.21
43808,0.79,0.28,-1.21
43826,0.71,0.23,-1.18
43845,0.56,0.22,-1.05
43863,0.49,0.25,-0.98
43882,0.40,0.30,-0.90
43900,0.39,0.35,-0.87
43919,0.57,0.31,-0.98
43937,0.66,0.26,-1.06
43956,0.62,0.23,-1.08
43974,0.58,0.20,-1.06
43993,0.56,0.17,-0.96
44011,0.60,0.15,-0.89
44030,0.48,0.18,-0.84
44048,0.53,0.18,-0.94
44067,0.59,0.20,-1.03
44085,0.69,0.17,-1.16
44104,0.80,0.11,-1.21
44122,0.88,0.10,-1.35
44141,0.75,0.06,-1.36
44159,0.74,-0.06,-1.30
44178,0.65,0.05,-1.38
44196,0.70,0.02,-1.13
44215,0.52,0.07,-1.21
44233,0.49,0.11,-1.13
44252,0.37,0.11,-1.20
44270,0.36,0.09,-1.12
44289,0.28,0.11,-1.12
44307,0.26,0.07,-1.20
44326,0.24,0.06,-1.11
44344,0.17,0.05,-1.04
44363,0.16,0.03,-1.14
44381,0.00,0.04,-1.12
44400,-0.01,0.03,-1.03
44418,-0.01,0.01,-1.04
44437,-0.08,0.01,-1.03
44455,-0.05,-0.01,-1.00
44474,-0.04,-0.03,-1.03
44492,-0.03,-0.04,-1.00
44511,-0.06,-0.03,-0.97
44529,-0.09,-0.03,-0.98
44548,-0.10,-0.02,-0.95
44566,-0.10,-0.02,-0.91
44585,-0.12,-0.02,-0.96
44603,-0.13,-0.01,-0.93
44622,-0.10,-0.03,-0.91
44640,-0.06,-0.04,-0.96
44659,-0.01,-0.05,-0.92
44677,0.00,-0.06,-0.89
44696,0.03,-0.06,-0.94
44714,0.01,-0.04,-0.98
44733,-0.04,-0.02,-0.95
44751,-0.04,-0.02,-0.96
44770,0.00,-0.02,-0.98
44788,0.02,-0.03,-0.97
44807,0.02,-0.03,-0.95
44825,0.02,-0.03,-0.96
44844,0.02,-0.03,-0.98
44862,0.03,-0.03,-0.96
44881,-0.01,-0.02,-0.98
44899,-0.02,-0.02,-0.99
44918,-0.02,-0.02,-0.96
44936,-0.02,-0.02,-0.99
44955,-0.01,-0.02,-1.01
44973,-0.02,-0.02,-0.99
44992,-0.04,-0.01,-1.00
45010,-0.04,-0.01,-0.99
45029,-0.01,-0.01,-1.00
45047,-0.06,-0.01,-0.99
45066,-0.02,-0.02,-0.98
45084,-0.00,-0.03,-0.96
45103,0.03,-0.03,-0.98
45121,0.03,-0.03,-0.99
45140,0.04,-0.03,-0.98
45158,0.06,-0.04,-0.99
45177,0.05,-0.04,-1.01
45195,0.03,-0.02,-0.99
45214,0.00,-0.02,-0.96
45232,-0.03,-0.01,-0.96
45251,-0.06,-0.01,-0.97
45269,-0.08,-0.01,-0.97
45288,-0.05,-0.00,-0.97
45306,-0.04,-0.04,-0.97
45325,0.01,-0.01,-0.96
45343,0.07,-0.06,-0.97
45362,0.07,-0.04,-1.01
45380,-0.02,-0.02,-0.99
45399,-0.09,-0.01,-0.99
45417,-0.09,-0.02,-1.00
45436,-0.06,0.00,-1.01
45454,0.00,-0.01,-1.00
45473,0.01,-0.03,-1.00
45491,0.03,-0.03,-1.00
45510,0.03,-0.03,-1.07
45528,0.09,-0.01,-1.06
45547,0.11,0.01,-1.03
45565,0.08,0.06,-0.98
45584,0.04,0.08,-0.97
45602,0.13,0.08,-0.94
45621,0.16,0.08,-1.05
45639,0.26,0.09,-1.09
45658,0.42,0.07,-1.11
45676,0.57,0.05,-1.16
45695,0.67,0.05,-1.22
45713,0.59,0.10,-1.20
45732,0.56,0.11,-1.20
45750,0.64,0.18,-1.25
45769,0.54,0.19,-1.10
45787,0.47,0.21,-1.11
45806,0.54,0.21,-1.14
45824,0.60,0.21,-1.14
45843,0.63,0.20,-1.10
45861,0.64,0.19,-1.11
45880,0.60,0.22,-1.07
45898,0.63,0.21,-1.06
45917,0.63,0.23,-1.06
45935,0.61,0.33,-1.01
45954,0.34,0.37,-0.80
45972,0.22,0.38,-0.82
45991,0.31,0.37,-0.99
46009,0.42,0.35,-0.98
46028,0.39,0.37,-0.96
46046,0.31,0.39,-1.02
46065,0.33,0.40,-1.05
46083,0.27,0.43,-1.06
46102,0.08,0.48,-0.95
46120,-0.01,0.51,-0.91
46139,-0.11,0.51,-0.93
46157,-0.13,0.50,-0.96
46176,-0.16,0.48,-1.01
46194,-0.05,0.44,-0.99
46213,0.02,0.39,-0.97
46231,0.05,0.40,-1.03
46250,-0.14,0.44,-0.88
46268,-0.42,0.52,-0.75
46287,-0.58,0.49,-0.80
46305,-0.43,0.44,-0.87
46324,-0.35,0.40,-0.84
46342,-0.21,0.33,-0.84
46361,-0.14,0.29,-0.91
46379,-0.18,0.29,-0.82
46398,-0.20,0.29,-0.76
46416,-0.23,0.28,-0.68
46435,-0.35,0.29,-0.66
46453,-0.38,0.29,-0.46
46472,-0.51,0.25,-0.65
46490,-0.76,0.34,-0.42
46509,-0.87,0.29,-0.36
46527,-0.88,0.27,-0.60
46546,-0.89,0.25,-0.59
46564,-0.83,0.25,-0.60
46583,-0.90,0.20,-0.59
46601,-0.86,0.14,-0.57
46620,-0.86,0.13,-0.66
46638,-0.87,0.12,-0.75
46657,-0.86,0.11,-0.73
46675,-1.00,0.13,-0.68
46694,-0.99,0.14,-0.73
46712,-1.02,0.15,-0.78
46731,-1.01,0.14,-0.74
46749,-0.95,0.12,-0.80
46768,-0.90,0.12,-0.87
46786,-0.82,0.10,-0.82
46805,-0.84,0.10,-0.82
46823,-0.87,0.10,-0.87
46842,-0.85,0.10,-0.84
46860,-0.84,0.10,-0.83
46879,-0.78,0.09,-0.88
46897,-0.70,0.08,-0.86
46916,-0.63,0.07,-0.86
46934,-0.55,0.04,-0.86
46953,-0.60,0.04,-0.84
46971,-0.61,0.01,-0.86
46990,-0.61,0.02,-0.81
47008,-0.63,0.01,-0.81
47027,-0.61,0.00,-0.84
47045,-0.59,0.02,-0.86
47064,-0.53,0.01,-0.80
47082,-0.45,-0.00,-0.86
47101,-0.49,0.01,-0.92
47119,-0.50,0.00,-0.87
47138,-0.45,-0.01,-0.85
47156,-0.49,0.00,-0.87
47175,-0.54,0.01,-0.90
47193,-0.51,0.02,-0.90
47212,-0.49,0.02,-0.91
47230,-0.43,0.01,-0.91
47249,-0.36,-0.01,-0.90
47267,-0.39,-0.01,-0.94
47286,-0.39,-0.02,-0.95
47304,-0.38,-0.03,-0.90
47323,-0.40,-0.02,-0.87
47341,-0.44,-0.02,-0.85
47360,-0.40,-0.03,-0.90
47378,-0.38,-0.03,-0.89
47397,-0.42,-0.02,-0.88
47415,-0.45,-0.02,-0.88
47434,-0.40,-0.03,-0.86
47452,-0.39,-0.03,-0.89
47471,-0.38,-0.04,-0.88
47489,-0.40,-0.04,-0.88
47508,-0.40,-0.03,-0.90
47526,-0.39,-0.03,-0.89
47545,-0.40,-0.02,-0.86
47563,-0.43,-0.02,-0.88
47582,-0.44,-0.02,-0.86
47600,-0.46,-0.03,-0.83
47619,-0.47,-0.02,-0.85
47637,-0.49,-0.02,-0.84
47656,-0.49,-0.02,-0.86
47674,-0.46,-0.02,-0.84
47693,-0.45,-0.02,-0.84
47711,-0.48,-0.01,-0.88
47730,-0.45,-0.01,-0.84
47748,-0.45,-0.01,-0.87
47767,-0.48,-0.01,-0.88
47785,-0.47,-0.01,-0.87
47804,-0.48,-0.01,-0.87
47822,-0.46,0.00,-0.87
47841,-0.50,0.01,-0.85
47859,-0.47,0.00,-0.91
47878,-0.42,-0.02,-0.89
47896,-0.48,-0.01,-0.87
47915,-0.48,-0.01,-0.88
47933,-0.51,-0.00,-0.84
47952,-0.54,0.01,-0.86
47970,-0.56,0.03,-0.84
47989,-0.63,0.04,-0.86
48007,-0.66,0.05,-0.89
48026,-0.63,0.04,-0.87
48044,-0.70,0.05,-0.86
48063,-0.75,0.07,-0.88
48081,-0.79,0.09,-0.87
48100,-0.84,0.12,-0.87
48118,-0.79,0.13,-0.91
48137,-0.76,0.12,-0.90
48155,-0.78,0.13,-0.90
48174,-0.80,0.13,-0.85
48192,-0.87,0.14,-0.78
48211,-0.88,0.15,-0.79
48229,-0.95,0.17,-0.81
48248,-0.97,0.19,-0.75
48266,-0.96,0.19,-0.74
48285,-0.91,0.17,-0.75
48303,-0.94,0.19,-0.72
48322,-0.97,0.22,-0.66
48340,-0.88,0.21,-0.68
48359,-0.91,0.23,-0.68
48377,-0.96,0.27,-0.63
48396,-0.89,0.27,-0.60
48414,-0.87,0.31,-0.59
48433,-0.85,0.33,-0.62
48451,-0.82,0.33,-0.57
48470,-0.73,0.34,-0.60
48488,-0.76,0.38,-0.61
48507,-0.78,0.42,-0.51
48525,-0.66,0.43,-0.58
48544,-0.69,0.48,-0.58
48562,-0.68,0.52,-0.50
48581,-0.62,0.55,-0.57
48599,-0.53,0.58,-0.63
48618,-0.24,0.55,-0.70
48636,-0.13,0.54,-0.80
48655,-0.01,0.49,-0.80
48673,0.03,0.49,-0.71
48692,0.01,0.47,-0.73
48710,-0.01,0.48,-0.76
48729,-0.09,0.52,-0.71
48747,-0.07,0.57,-0.68
48766,0.03,0.63,-0.85
48784,0.20,0.68,-1.04
48803,0.35,0.60,-1.15
48821,0.71,0.54,-1.24
48840,0.73,0.45,-1.30
48858,0.67,0.40,-1.17
48877,0.64,0.35,-1.08
48895,0.65,0.32,-1.02
48914,0.64,0.32,-1.09
48932,0.63,0.31,-1.24
48951,0.66,0.29,-1.25
48969,0.67,0.27,-1.25
48988,0.68,0.22,-1.20
49006,0.68,0.19,-1.16
49025,0.67,0.13,-1.13
49043,0.61,0.15,-1.16
49062,0.58,0.13,-1.19
49080,0.41,0.16,-1.13
49099,0.41,0.13,-1.03
49117,0.52,0.16,-1.33
49136,0.51,0.11,-1.12
49154,0.37,0.13,-1.12
49173,0.43,0.11,-1.27
49191,0.40,0.09,-1.29
49210,0.29,0.08,-1.01
49228,0.26,0.08,-1.11
49247,0.32,0.06,-1.09
49265,0.14,0.08,-0.97
49284,0.14,0.07,-1.06
49302,0.14,0.08,-1.04
49321,0.02,0.07,-1.05
49339,-0.00,0.07,-1.04
49358,-0.01,0.08,-1.06
49376,-0.00,0.07,-1.08
49395,-0.05,0.07,-1.07
49413,-0.08,0.08,-1.03
49432,-0.09,0.07,-1.05
49450,-0.08,0.06,-1.04
49469,-0.08,0.05,-0.96
49487,-0.06,0.04,-0.94
49506,-0.07,0.04,-0.96
49524,-0.08,0.03,-0.94
49543,-0.09,0.04,-0.89
49561,-0.07,0.03,-0.95
49580,-0.06,0.03,-1.00
49598,-0.06,0.03,-0.94
49617,-0.06,0.03,-0.94
49635,-0.03,0.02,-1.00
49654,-0.02,0.03,-1.00
49672,-0.05,0.03,-0.90
49691,-0.09,0.05,-0.91
49709,-0.03,0.04,-0.96
49728,0.00,0.03,-0.99
49746,-0.01,0.04,-0.95
49765,0.00,0.04,-0.96
49783,0.03,0.04,-1.01
49802,-0.01,0.05,-1.02
49820,0.01,0.05,-1.01
49839,0.01,0.06,-1.00
49857,-0.02,0.06,-1.01
49876,-0.01,0.07,-1.02
49894,0.00,0.06,-0.98
49913,0.03,0.06,-1.01
49931,0.02,0.06,-1.02
49950,0.01,0.06,-0.97
49968,0.04,0.05,-0.97
49987,0.03,0.05,-1.00
50005,0.01,0.05,-0.98
50024,0.02,0.05,-0.98
50042,0.01,0.05,-0.98
50061,-0.01,0.06,-0.97
50079,-0.01,0.05,-0.98
50098,-0.03,0.06,-0.99
50116,-0.02,0.05,-0.97
50135,-0.01,0.04,-1.01
50153,-0.01,0.04,-1.01
50172,-0.03,0.05,-0.99
50190,-0.07,0.06,-1.00
50209,-0.10,0.06,-0.99
50227,-0.07,0.05,-0.98
50246,-0.04,0.04,-0.99
50264,-0.06,0.05,-0.98
50283,-0.07,0.05,-0.97
50301,-0.04,0.05,-0.98
50320,-0.02,0.05,-1.01
50338,0.04,0.05,-1.02
50357,0.04,0.06,-1.03
50375,0.07,0.06,-1.06
50394,0.15,0.05,-1.07
50412,0.17,0.06,-1.06
50431,0.23,0.05,-1.09
50449,0.28,0.06,-1.07
50468,0.25,0.08,-1.09
50486,0.30,0.08,-1.13
50505,0.34,0.09,-1.15
50523,0.37,0.08,-1.19
50542,0.47,0.07,-1.17
50560,0.51,0.09,-1.19
50579,0.51,0.09,-1.19
50597,0.50,0.11,-1.14
50616,0.54,0.10,-1.12
50634,0.54,0.12,-1.11
50653,0.55,0.10,-1.06
50671,0.58,0.11,-1.06
50690,0.57,0.10,-1.01
50708,0.59,0.10,-0.98
50727,0.62,0.11,-0.96
50745,0.60,0.13,-0.93
50764,0.54,0.16,-0.89
50782,0.51,0.19,-0.95
50801,0.49,0.21,-0.99
50819,0.51,0.23,-0.96
50838,0.44,0.27,-1.00
50856,0.36,0.31,-1.05
50875,0.29,0.35,-1.04
50893,0.19,0.38,-1.03
50912,0.13,0.40,-1.04
50930,0.12,0.40,-1.04
50949,0.12,0.39,-1.03
50967,0.15,0.38,-1.00
50986,0.16,0.37,-0.96
51004,0.16,0.37,-1.01
51023,-0.01,0.42,-1.06
51041,-0.13,0.44,-0.94
51060,-0.27,0.44,-0.86
51078,-0.33,0.43,-0.97
51097,-0.20,0.37,-0.92
51115,-0.10,0.33,-0.85
51134,-0.09,0.32,-0.83
51152,-0.07,0.31,-0.83
51171,-0.07,0.31,-0.80
51189,0.03,0.29,-0.79
51208,0.08,0.30,-0.90
51226,-0.21,0.39,-0.85
51245,-0.42,0.42,-0.68
51263,-0.48,0.40,-0.66
51282,-0.57,0.40,-0.71
51300,-0.50,0.39,-0.54
51319,-0.44,0.38,-0.74
51337,-0.46,0.32,-0.46
51356,-0.51,0.31,-0.57
51374,-0.52,0.29,-0.73
51393,-0.53,0.29,-0.58
51411,-0.61,0.33,-0.60
51430,-0.81,0.34,-0.64
51448,-0.96,0.31,-0.48
51467,-1.05,0.34,-0.55
51485,-1.13,0.31,-0.66
51504,-1.18,0.28,-0.55
51522,-1.14,0.28,-0.60
51541,-1.04,0.26,-0.70
51559,-0.99,0.23,-0.70
51578,-0.86,0.21,-0.80
51596,-0.83,0.21,-0.85
51615,-1.01,0.24,-0.74
51633,-1.05,0.24,-0.79
51652,-1.03,0.25,-0.83
51670,-1.06,0.25,-0.79
51689,-1.05,0.25,-0.81
51707,-0.98,0.20,-0.79
51726,-0.81,0.19,-0.89
51744,-0.85,0.18,-0.86
51763,-0.79,0.17,-0.87
51781,-0.70,0.14,-0.89
51800,-0.69,0.14,-0.83
51818,-0.65,0.13,-0.84
51837,-0.67,0.14,-0.83
51855,-0.71,0.14,-0.83
51874,-0.70,0.13,-0.80
51892,-0.67,0.12,-0.84
51911,-0.59,0.10,-0.82
51929,-0.52,0.08,-0.82
51948,-0.53,0.08,-0.87
51966,-0.52,0.08,-0.85
51985,-0.48,0.06,-0.86
52003,-0.43,0.05,-0.86
52022,-0.44,0.05,-0.86
52040,-0.45,0.05,-0.84
52059,-0.48,0.06,-0.84
52077,-0.47,0.06,-0.85
52096,-0.46,0.05,-0.85
52114,-0.47,0.06,-0.88
52133,-0.43,0.05,-0.88
52151,-0.41,0.04,-0.89
52170,-0.40,0.03,-0.90
52188,-0.38,0.03,-0.86
52207,-0.40,0.04,-0.87
52225,-0.41,0.04,-0.87
52244,-0.45,0.05,-0.85
52262,-0.47,0.06,-0.85
52281,-0.47,0.05,-0.87
52299,-0.48,0.05,-0.86
52318,-0.47,0.05,-0.84
52336,-0.48,0.06,-0.91
52355,-0.49,0.07,-0.89
52373,-0.49,0.07,-0.89
52392,-0.47,0.07,-0.92
52410,-0.43,0.06,-0.87
52429,-0.43,0.06,-0.88
52447,-0.48,0.07,-0.91
52466,-0.49,0.07,-0.87
52484,-0.51,0.07,-0.85
52503,-0.49,0.07,-0.87
52521,-0.48,0.06,-0.87
52540,-0.49,0.06,-0.86
52558,-0.49,0.06,-0.87
52577,-0.51,0.07,-0.86
52595,-0.53,0.07,-0.84
52614,-0.52,0.07,-0.84
52632,-0.56,0.08,-0.84
52651,-0.58,0.09,-0.86
52669,-0.56,0.08,-0.87
52688,-0.56,0.08,-0.86
52706,-0.59,0.08,-0.86
52725,-0.58,0.09,-0.87
52743,-0.58,0.09,-0.85
52762,-0.62,0.10,-0.86
52780,-0.62,0.11,-0.87
52799,-0.63,0.11,-0.86
52817,-0.67,0.11,-0.87
52836,-0.69,0.11,-0.85
52854,-0.67,0.11,-0.84
52873,-0.73,0.11,-0.83
52891,-0.70,0.11,-0.84
52910,-0.67,0.10,-0.83
52928,-0.69,0.12,-0.80
52947,-0.71,0.12,-0.83
52965,-0.69,0.11,-0.84
52984,-0.68,0.11,-0.80
53002,-0.67,0.11,-0.80
53021,-0.71,0.12,-0.79
53039,-0.74,0.13,-0.79
53058,-0.71,0.12,-0.79
53076,-0.68,0.12,-0.80
53095,-0.62,0.11,-0.84
53113,-0.60,0.11,-0.83
53132,-0.56,0.09,-0.82
53150,-0.58,0.09,-0.83
53169,-0.57,0.10,-0.83
53187,-0.61,0.10,-0.77
53206,-0.69,0.12,-0.75
53224,-0.68,0.12,-0.79
53243,-0.68,0.13,-0.74
53261,-0.66,0.14,-0.75
53280,-0.59,0.14,-0.81
53298,-0.66,0.15,-0.77
53317,-0.65,0.16,-0.78
53335,-0.62,0.16,-0.77
53354,-0.66,0.17,-0.75
53372,-0.57,0.17,-0.84
53391,-0.51,0.21,-0.82
53409,-0.45,0.19,-0.82
53428,-0.47,0.19,-0.81
53446,-0.45,0.20,-0.79
53465,-0.38,0.18,-0.85
53483,-0.39,0.18,-0.77
53502,-0.42,0.17,-0.73
53520,-0.42,0.18,-0.77
53539,-0.46,0.20,-0.68
53557,-0.51,0.22,-0.66
53576,-0.55,0.25,-0.70
53594,-0.50,0.27,-0.69
53613,-0.47,0.26,-0.60
53631,-0.49,0.26,-0.59
53650,-0.48,0.28,-0.60
53668,-0.42,0.27,-0.57
53687,-0.39,0.28,-0.60
53705,-0.34,0.28,-0.61
53724,-0.23,0.27,-0.67
53742,-0.26,0.30,-0.64
53761,-0.17,0.28,-0.72
53779,-0.16,0.31,-0.85
53798,-0.06,0.39,-0.97
53816,-0.11,0.49,-0.91
53835,-0.29,0.59,-1.04
53853,-0.18,0.62,-1.17
53872,0.05,0.52,-1.17
53890,0.38,0.46,-1.25
53909,0.51,0.36,-1.08
53927,0.61,0.29,-1.07
53946,0.66,0.23,-1.30
53964,0.59,0.23,-1.37
53983,0.51,0.24,-1.33
54001,0.49,0.22,-1.18
54020,0.60,0.21,-0.93
54038,0.69,0.15,-1.08
54057,0.67,0.14,-1.29
54075,0.73,0.09,-1.25
54094,0.77,0.04,-1.13
54112,0.64,0.06,-1.11
54131,0.71,0.02,-1.18
54149,0.49,0.03,-1.09
54168,0.49,0.10,-1.11
54186,0.52,0.06,-1.05
54205,0.53,0.04,-1.03
54223,0.52,0.02,-1.25
54242,0.57,-0.02,-1.17
54260,0.51,-0.02,-1.11
54279,0.42,-0.01,-1.17
54297,0.28,0.03,-1.12
54316,0.23,0.02,-1.01
54334,0.19,0.03,-1.01
54353,0.14,0.03,-1.09
54371,0.18,0.02,-1.09
54390,0.23,-0.02,-1.01
54408,0.13,-0.02,-0.94
54427,0.15,-0.07,-1.02
54445,0.22,-0.14,-1.12
54464,0.08,-0.11,-1.07
54482,0.04,-0.02,-1.10
54501,0.14,-0.00,-1.10
54519,-0.03,0.05,-1.18
54538,-0.21,0.07,-1.19
54556,-0.15,0.06,-1.01
54575,-0.05,0.01,-0.93
54593,0.02,-0.04,-1.06
54612,0.17,-0.08,-1.19
54630,0.22,-0.09,-1.17
54649,0.20,-0.08,-1.12
54667,0.20,-0.08,-1.08
54686,0.11,-0.08,-1.13
54704,0.05,-0.08,-1.29
54723,0.07,-0.10,-1.17
54741,-0.01,-0.07,-0.80
54760,0.01,-0.11,-0.79
54778,0.20,-0.17,-0.84
54797,0.24,-0.18,-0.76
54815,0.24,-0.19,-0.90
54834,0.21,-0.19,-1.11
54852,0.15,-0.17,-1.01
54871,0.13,-0.19,-0.83
54889,0.14,-0.20,-0.73
54908,0.15,-0.22,-0.72
54926,0.10,-0.22,-0.76
54945,0.07,-0.22,-0.68
54963,0.08,-0.24,-0.54
54982,0.13,-0.26,-0.58
55000,0.21,-0.28,-0.64
55019,0.21,-0.28,-0.65
55037,0.18,-0.27,-0.72
55056,0.20,-0.26,-0.73
55074,0.26,-0.27,-0.71
55093,0.23,-0.24,-0.76
55111,0.22,-0.24,-0.77
55130,0.24,-0.24,-0.89
55148,0.21,-0.22,-0.98
55167,0.23,-0.21,-0.75
55185,0.26,-0.20,-0.63
55204,0.32,-0.19,-1.00
55222,0.31,-0.18,-1.15
55241,0.25,-0.17,-0.99
55259,0.29,-0.16,-0.92
55278,0.26,-0.12,-0.94
55296,0.25,-0.12,-0.95
55315,0.23,-0.10,-1.10
55333,0.32,-0.12,-1.07
55352,0.37,-0.11,-1.00
55370,0.32,-0.10,-1.08
55389,0.42,-0.12,-1.16
55407,0.44,-0.12,-1.08
55426,0.39,-0.11,-0.95
55444,0.39,-0.09,-0.86
55463,0.30,-0.06,-0.91
55481,0.20,-0.03,-1.06
55500,0.22,-0.03,-1.06
55518,0.40,-0.10,-0.96
55537,0.62,-0.11,-1.02
55555,0.62,-0.12,-0.90
55574,0.48,-0.09,-1.11
55592,0.43,-0.06,-1.09
55611,0.37,-0.04,-0.91
55629,0.36,-0.04,-1.00
55648,0.39,-0.05,-0.93
55666,0.36,-0.03,-0.86
55685,0.33,-0.03,-1.02
55703,0.35,-0.04,-1.04
55722,0.40,-0.06,-0.93
55740,0.41,-0.06,-0.90
55759,0.37,-0.06,-0.82
55777,0.37,-0.06,-0.74
55796,0.40,-0.06,-0.80
55814,0.40,-0.05,-0.84
55833,0.42,-0.05,-0.94
55851,0.45,-0.06,-1.01
55870,0.44,-0.06,-0.97
55888,0.43,-0.06,-0.86
55907,0.44,-0.07,-0.83
55925,0.43,-0.07,-0.89
55944,0.44,-0.07,-0.87
55962,0.47,-0.08,-0.84
55981,0.51,-0.08,-0.83
55999,0.43,-0.06,-0.88
56018,0.45,-0.06,-0.88
56036,0.51,-0.06,-0.88
56055,0.45,-0.05,-0.98
56073,0.40,-0.03,-1.06
56092,0.39,-0.02,-1.03
56110,0.41,-0.02,-1.05
56129,0.45,-0.03,-1.08
56147,0.44,-0.03,-1.08
56166,0.45,-0.04,-1.03
56184,0.45,-0.04,-0.94
56203,0.42,-0.04,-0.80
56221,0.37,-0.04,-0.78
56240,0.35,-0.05,-0.89
56258,0.35,-0.07,-0.95
56277,0.33,-0.07,-0.94
56295,0.31,-0.07,-0.85
56314,0.29,-0.07,-0.82
56332,0.29,-0.08,-0.90
56351,0.30,-0.09,-0.92
56369,0.28,-0.09,-0.86
56388,0.28,-0.09,-0.81
56406,0.26,-0.09,-0.83
56425,0.24,-0.09,-0.84
56443,0.30,-0.11,-0.81
56462,0.36,-0.13,-0.87
56480,0.36,-0.13,-0.91
56499,0.30,-0.11,-0.87
56517,0.25,-0.09,-0.89
56536,0.25,-0.09,-0.92
56554,0.24,-0.08,-0.91
56573,0.30,-0.10,-0.94
56591,0.41,-0.12,-0.94
56610,0.40,-0.12,-0.99
56628,0.39,-0.11,-1.01
56647,0.41,-0.12,-0.99
56665,0.39,-0.11,-0.96
56684,0.35,-0.11,-0.95
56702,0.31,-0.10,-0.96
56721,0.31,-0.11,-0.95
56739,0.34,-0.12,-0.92
56758,0.32,-0.13,-0.90
56776,0.29,-0.12,-0.90
56795,0.31,-0.13,-0.89
56813,0.30,-0.14,-0.90
56832,0.28,-0.14,-0.90
56850,0.30,-0.15,-0.86
56869,0.25,-0.14,-0.88
56887,0.22,-0.13,-0.90
56906,0.23,-0.14,-0.88
56924,0.24,-0.14,-0.87
56943,0.22,-0.14,-0.89
56961,0.22,-0.14,-0.93
56980,0.19,-0.13,-0.92
56998,0.17,-0.12,-0.91
57017,0.19,-0.13,-0.91
57035,0.19,-0.13,-0.94
57054,0.20,-0.13,-0.94
57072,0.22,-0.14,-0.94
57091,0.24,-0.14,-0.95
57109,0.21,-0.14,-0.95
57128,0.20,-0.12,-0.94
57146,0.18,-0.12,-0.93
57165,0.16,-0.12,-0.92
57183,0.20,-0.13,-0.95
57202,0.23,-0.14,-0.93
57220,0.24,-0.15,-0.90
57239,0.25,-0.16,-0.90
57257,0.24,-0.16,-0.89
57276,0.22,-0.16,-0.87
57294,0.24,-0.17,-0.87
57313,0.24,-0.16,-0.86
57331,0.21,-0.16,-0.84
57350,0.19,-0.15,-0.88
57368,0.21,-0.15,-0.89
57387,0.23,-0.16,-0.88
57405,0.22,-0.16,-0.90
57424,0.22,-0.16,-0.92
57442,0.22,-0.15,-0.92
57461,0.23,-0.14,-0.91
57479,0.19,-0.13,-0.91
57498,0.21,-0.14,-0.91
