timestamp,AX,AY,AZ
0,-0.81,-0.17,-1.30
18,-0.71,-0.16,-1.17
37,-0.60,-0.11,-1.03
55,-0.34,-0.04,-0.74
74,-0.25,-0.17,-0.50
92,-0.46,-0.12,-0.53
111,-0.54,-0.11,-0.76
129,-0.50,-0.13,-0.87
148,-0.44,-0.15,-0.88
166,-0.43,-0.16,-0.82
185,-0.45,-0.15,-0.71
203,-0.43,-0.15,-0.65
222,-0.36,-0.14,-0.73
240,-0.20,-0.12,-0.77
259,-0.08,-0.08,-0.87
277,0.04,-0.08,-0.80
296,-0.03,-0.11,-0.64
314,-0.30,-0.09,-0.76
333,-0.43,-0.13,-1.09
351,-0.38,-0.10,-1.23
370,-0.23,-0.11,-1.30
388,-0.05,-0.13,-1.14
407,0.10,-0.16,-0.91
425,0.14,-0.20,-0.72
444,0.15,-0.15,-0.64
462,0.13,-0.11,-0.70
481,0.10,-0.07,-0.66
499,0.06,-0.06,-0.67
518,0.02,-0.03,-0.83
536,-0.07,-0.02,-1.20
555,-0.03,-0.05,-1.27
573,0.07,-0.08,-1.28
592,0.12,-0.10,-1.22
610,0.10,-0.11,-1.18
629,0.16,-0.07,-1.05
647,0.28,-0.04,-0.82
666,0.38,-0.06,-0.85
684,0.46,-0.01,-0.81
703,0.52,-0.03,-1.09
721,0.26,0.01,-0.96
740,0.15,-0.02,-1.01
758,0.14,-0.01,-1.04
777,0.29,-0.02,-0.97
795,0.40,-0.04,-0.96
814,0.28,-0.03,-1.02
832,-0.02,-0.03,-0.82
851,-0.09,-0.03,-0.80
869,0.16,-0.06,-0.79
888,0.35,-0.07,-0.85
906,0.23,-0.07,-1.00
925,0.05,-0.07,-0.83
943,0.13,-0.06,-0.87
962,0.24,-0.04,-0.91
980,0.32,-0.06,-0.92
999,0.38,-0.08,-0.94
1017,0.42,-0.07,-0.98
1036,0.40,-0.06,-0.95
1054,0.32,-0.07,-0.87
1073,0.30,-0.05,-0.86
1091,0.31,-0.09,-0.92
1110,0.34,-0.07,-0.92
1128,0.37,-0.05,-0.87
1147,0.37,-0.07,-0.78
1165,0.29,-0.04,-0.87
1184,0.30,-0.04,-0.97
1202,0.35,-0.05,-0.95
1221,0.40,-0.05,-1.01
1239,0.44,-0.04,-1.00
1258,0.42,-0.05,-0.98
1276,0.37,-0.05,-0.94
1295,0.35,-0.07,-0.89
1313,0.33,-0.06,-0.92
1332,0.34,-0.07,-0.95
1350,0.34,-0.07,-0.95
1369,0.35,-0.07,-0.94
1387,0.36,-0.07,-0.96
1406,0.35,-0.06,-1.00
1424,0.32,-0.07,-0.99
1443,0.31,-0.06,-0.97
1461,0.28,-0.07,-0.93
1480,0.29,-0.05,-0.92
1498,0.28,-0.06,-0.91
1517,0.25,-0.07,-0.94
1535,0.26,-0.06,-1.03
1554,0.32,-0.07,-1.04
1572,0.33,-0.10,-0.94
1591,0.28,-0.10,-1.01
1609,0.29,-0.11,-1.04
1628,0.20,-0.10,-1.02
1646,0.11,-0.09,-1.03
1665,0.12,-0.08,-0.96
1683,0.15,-0.10,-0.97
1702,0.16,-0.11,-0.89
1720,0.10,-0.11,-0.90
1739,0.02,-0.11,-0.85
1757,-0.04,-0.10,-0.96
1776,0.03,-0.11,-1.03
1794,0.08,-0.11,-1.12
1813,-0.04,-0.10,-1.08
1831,-0.10,-0.12,-1.09
1850,-0.08,-0.11,-1.04
1868,-0.07,-0.10,-0.96
1887,-0.12,-0.10,-0.90
1905,-0.20,-0.11,-0.81
1924,-0.26,-0.12,-0.70
1942,-0.28,-0.12,-0.69
1961,-0.33,-0.13,-0.79
1979,-0.38,-0.12,-0.96
1998,-0.39,-0.12,-1.05
2016,-0.34,-0.13,-1.06
2035,-0.28,-0.14,-0.97
2053,-0.33,-0.10,-0.87
2072,-0.37,-0.13,-0.80
2090,-0.46,-0.13,-0.76
2109,-0.41,-0.14,-0.76
2127,-0.33,-0.15,-0.82
2146,-0.34,-0.15,-0.86
2164,-0.49,-0.13,-0.87
2183,-0.37,-0.13,-0.80
2201,-0.15,-0.14,-0.69
2220,-0.11,-0.12,-0.69
2238,-0.01,-0.11,-0.72
2257,0.09,-0.08,-0.74
2275,0.17,-0.08,-1.01
2294,0.21,-0.09,-1.30
2312,0.29,-0.08,-1.22
2331,0.26,-0.09,-1.00
2349,0.22,-0.13,-0.91
2368,0.24,-0.07,-0.95
2386,0.42,-0.06,-0.91
2405,0.57,-0.06,-0.82
2423,0.62,-0.06,-0.74
2442,0.61,-0.04,-0.70
2460,0.59,-0.05,-0.69
2479,0.64,-0.06,-0.75
2497,0.79,-0.08,-0.94
2516,0.94,-0.09,-0.99
2534,1.01,-0.08,-0.92
2553,0.92,-0.06,-0.77
2571,0.82,-0.06,-0.72
2590,0.78,-0.08,-0.79
2608,0.83,-0.08,-0.82
2627,0.83,-0.11,-0.70
2645,0.77,-0.12,-0.62
2664,0.74,-0.14,-0.72
2682,0.69,-0.13,-0.69
2701,0.48,-0.12,-0.73
2719,0.35,-0.11,-0.78
2738,0.29,-0.15,-0.78
2756,0.18,-0.07,-0.77
2775,-0.28,-0.26,-0.62
2793,-0.53,-0.07,-0.45
2812,-0.73,-0.06,-0.60
2830,-0.76,0.00,-0.99
2849,-0.63,0.05,-1.16
2867,-0.50,-0.01,-1.15
2886,-0.46,-0.09,-1.06
2904,-0.45,-0.05,-0.81
2923,-0.60,-0.05,-0.57
2941,-0.84,-0.03,-0.60
2960,-0.84,-0.04,-0.69
2978,-0.53,-0.13,-0.65
2997,-0.47,-0.11,-0.65
3015,-0.52,-0.13,-0.64
3034,-0.44,-0.13,-0.51
3052,-0.42,-0.13,-0.55
3071,-0.39,-0.06,-0.83
3089,-0.24,-0.07,-1.04
3108,-0.08,-0.10,-1.04
3126,-0.10,-0.15,-0.75
3145,-0.28,-0.15,-0.53
3163,-0.17,-0.11,-0.53
3182,0.28,-0.10,-0.67
3200,0.70,-0.09,-0.78
3219,0.89,-0.06,-0.99
3237,0.90,-0.05,-1.14
3256,0.67,-0.05,-1.19
3274,0.36,-0.04,-1.10
3293,0.12,-0.04,-0.93
3311,0.14,-0.06,-0.78
3330,0.32,-0.08,-0.74
3348,0.56,-0.10,-0.66
3367,0.73,-0.10,-0.63
3385,0.83,-0.10,-0.73
3404,0.78,-0.07,-0.85
3422,0.82,-0.09,-0.70
3441,0.89,-0.08,-0.56
3459,0.94,-0.04,-0.68
3478,1.03,-0.04,-0.81
3496,1.06,-0.04,-0.68
3515,1.08,-0.02,-0.50
3533,1.23,-0.01,-0.56
3552,1.42,-0.03,-0.70
3570,1.46,-0.05,-0.65
3589,1.38,-0.04,-0.49
3607,1.36,-0.03,-0.44
3626,1.35,-0.02,-0.58
3644,1.28,-0.00,-0.70
3663,1.06,0.02,-0.71
3681,0.79,0.04,-0.69
3700,0.70,0.07,-0.77
3718,0.71,-0.00,-0.78
3737,0.61,-0.03,-0.76
3755,0.33,-0.06,-0.62
3774,-0.05,-0.06,-0.58
3792,-0.38,-0.01,-0.76
3811,-0.41,-0.04,-0.85
3829,-0.47,-0.06,-0.88
3848,-0.56,-0.09,-0.81
3866,-0.71,-0.11,-0.80
3885,-0.83,-0.05,-0.84
3903,-0.75,-0.10,-0.69
3922,-0.76,-0.11,-0.61
3940,-0.92,-0.12,-0.58
3959,-0.96,-0.10,-0.69
3977,-0.87,-0.10,-0.75
3996,-0.79,-0.07,-0.79
4014,-0.56,-0.10,-0.80
4033,-0.31,-0.10,-0.82
4051,-0.20,-0.12,-0.86
4070,-0.19,-0.13,-0.94
4088,-0.06,-0.16,-0.93
4107,0.13,-0.20,-0.70
4125,0.36,-0.25,-0.42
4144,0.62,-0.30,-0.33
4162,0.84,-0.30,-0.46
4181,0.99,-0.31,-0.57
4199,1.06,-0.29,-0.58
4218,1.17,-0.26,-0.53
4236,1.27,-0.29,-0.50
4255,1.23,-0.27,-0.44
4273,1.21,-0.28,-0.30
4292,1.16,-0.28,-0.35
4310,1.11,-0.26,-0.43
4329,1.07,-0.24,-0.50
4347,0.98,-0.18,-0.74
4366,0.98,-0.11,-0.97
4384,1.08,-0.12,-0.99
4403,0.99,-0.13,-0.91
4421,0.69,-0.15,-0.76
4440,0.43,-0.13,-0.66
4458,0.27,-0.14,-0.69
4477,0.15,-0.13,-0.84
4495,0.08,-0.13,-0.95
4514,0.03,-0.14,-0.97
4532,-0.14,-0.13,-0.95
4551,-0.37,-0.12,-0.96
4569,-0.68,-0.10,-1.03
4588,-0.99,-0.06,-1.10
4606,-1.23,-0.06,-1.10
4625,-1.38,-0.05,-1.09
4643,-1.34,-0.05,-1.08
4662,-1.22,-0.06,-1.07
4680,-1.16,-0.07,-0.99
4699,-1.20,-0.08,-0.91
4717,-1.13,-0.07,-0.76
4736,-0.92,-0.08,-0.55
4754,-0.73,-0.10,-0.39
4773,-0.67,-0.06,-0.47
4791,-0.51,-0.01,-0.74
4810,-0.21,0.04,-0.97
4828,0.11,0.04,-1.02
4847,0.47,0.03,-0.89
4865,0.78,-0.00,-0.85
4884,1.00,0.01,-1.03
4902,1.20,0.02,-1.26
4921,1.46,0.02,-1.41
4939,1.63,0.01,-1.41
4958,1.61,0.01,-1.42
4976,1.52,0.00,-1.44
4995,1.43,0.00,-1.42
5013,1.39,-0.01,-1.27
5032,1.34,-0.01,-1.12
5050,1.20,-0.01,-1.06
5069,1.00,0.01,-1.10
5087,0.78,0.02,-1.04
5106,0.57,0.02,-0.94
5124,0.37,-0.00,-0.90
5143,0.20,-0.02,-0.91
5161,0.05,-0.05,-0.90
5180,-0.18,-0.06,-0.86
5198,-0.48,-0.08,-0.81
5217,-0.81,-0.07,-0.89
5235,-1.12,-0.08,-0.88
5254,-1.30,-0.09,-0.81
5272,-1.34,-0.11,-0.77
5291,-1.36,-0.16,-0.78
5309,-1.40,-0.18,-0.77
5328,-1.40,-0.20,-0.74
5346,-1.29,-0.24,-0.63
5365,-1.15,-0.25,-0.46
5383,-1.00,-0.27,-0.33
5402,-0.89,-0.24,-0.35
5420,-0.83,-0.22,-0.43
5439,-0.73,-0.17,-0.55
5457,-0.51,-0.11,-0.66
5476,-0.16,-0.09,-0.76
5494,0.18,-0.11,-0.93
5513,0.46,-0.06,-0.96
5531,0.76,-0.04,-1.04
5550,1.01,-0.06,-1.15
5568,1.22,-0.05,-1.26
5587,1.39,-0.06,-1.32
5605,1.51,-0.07,-1.35
5624,1.50,-0.08,-1.37
5642,1.41,-0.08,-1.34
5661,1.39,-0.09,-1.26
5679,1.35,-0.07,-1.22
5698,1.30,-0.05,-1.22
5716,1.20,-0.04,-1.20
5735,0.99,-0.02,-1.14
5753,0.77,-0.01,-1.07
5772,0.59,-0.00,-0.98
5790,0.41,0.00,-0.92
5809,0.18,-0.01,-0.89
5827,-0.07,-0.03,-0.97
5846,-0.32,-0.05,-1.06
5864,-0.57,-0.06,-1.06
5883,-0.81,-0.07,-0.94
5901,-1.06,-0.11,-0.86
5920,-1.31,-0.10,-0.85
5938,-1.46,-0.12,-0.86
5957,-1.54,-0.13,-0.84
5975,-1.62,-0.16,-0.81
5994,-1.62,-0.17,-0.77
6012,-1.49,-0.18,-0.73
6031,-1.31,-0.18,-0.68
6049,-1.20,-0.19,-0.64
6068,-1.10,-0.17,-0.59
6086,-0.94,-0.14,-0.53
6105,-0.76,-0.12,-0.52
6123,-0.57,-0.07,-0.62
6142,-0.27,-0.03,-0.78
6160,0.08,-0.06,-0.92
6179,0.37,-0.01,-0.92
6197,0.74,0.02,-0.96
6216,1.21,0.02,-1.07
6234,1.64,-0.03,-1.17
6253,1.81,-0.05,-1.32
6271,1.73,-0.05,-1.43
6290,1.60,-0.10,-1.37
6308,1.53,-0.09,-1.24
6327,1.52,-0.10,-1.14
6345,1.46,-0.11,-1.06
6364,1.33,-0.10,-0.97
6382,1.19,-0.08,-0.91
6401,1.09,-0.08,-0.92
6419,0.89,-0.07,-0.98
6438,0.62,-0.05,-0.98
6456,0.37,-0.06,-0.85
6475,0.09,-0.11,-0.78
6493,-0.25,-0.11,-0.87
6512,-0.52,-0.11,-0.92
6530,-0.70,-0.13,-0.90
6549,-0.89,-0.14,-0.89
6567,-1.14,-0.13,-0.88
6586,-1.37,-0.16,-0.86
6604,-1.54,-0.18,-0.82
6623,-1.60,-0.19,-0.78
6641,-1.52,-0.20,-0.76
6660,-1.33,-0.22,-0.75
6678,-1.15,-0.23,-0.73
6697,-1.07,-0.21,-0.72
6715,-1.00,-0.19,-0.67
6734,-0.89,-0.15,-0.62
6752,-0.70,-0.11,-0.71
6771,-0.45,-0.07,-0.81
6789,-0.12,-0.04,-0.79
6808,0.23,-0.08,-0.82
6826,0.58,-0.04,-0.88
6845,0.92,-0.02,-1.10
6863,1.17,-0.02,-1.25
6882,1.32,-0.01,-1.30
6900,1.43,-0.01,-1.30
6919,1.60,-0.06,-1.26
6937,1.69,-0.10,-1.17
6956,1.60,-0.09,-1.19
6974,1.44,-0.07,-1.27
6993,1.31,-0.08,-1.27
7011,1.21,-0.06,-1.15
7030,1.07,-0.06,-0.99
7048,0.89,-0.06,-0.92
7067,0.71,-0.06,-0.85
7085,0.50,-0.07,-0.82
7104,0.20,-0.07,-0.87
7122,-0.07,-0.08,-0.92
7141,-0.29,-0.10,-0.95
7159,-0.53,-0.09,-0.98
7178,-0.79,-0.11,-0.96
7196,-1.01,-0.11,-0.91
7215,-1.21,-0.15,-0.87
7233,-1.44,-0.16,-0.89
7252,-1.58,-0.17,-0.94
7270,-1.56,-0.18,-0.91
7289,-1.44,-0.20,-0.84
7307,-1.27,-0.21,-0.80
7326,-1.11,-0.22,-0.73
7344,-0.98,-0.21,-0.67
7363,-0.85,-0.20,-0.65
7381,-0.71,-0.18,-0.56
7400,-0.53,-0.17,-0.41
7418,-0.28,-0.14,-0.40
7437,-0.02,-0.11,-0.61
7455,0.22,-0.10,-0.91
7474,0.49,-0.02,-0.97
7492,0.85,-0.05,-0.96
7511,1.11,-0.02,-1.07
7529,1.28,-0.03,-1.21
7548,1.37,-0.02,-1.33
7566,1.48,-0.08,-1.28
7585,1.50,-0.06,-1.23
7603,1.47,-0.05,-1.24
7622,1.44,-0.05,-1.19
7640,1.32,-0.05,-1.16
7659,1.14,-0.02,-1.14
7677,1.04,-0.01,-1.09
7696,0.93,-0.01,-1.00
7714,0.73,0.00,-0.93
7733,0.49,0.01,-0.92
7751,0.25,-0.00,-0.94
7770,0.00,-0.03,-1.01
7788,-0.24,-0.06,-1.02
7807,-0.43,-0.11,-0.95
7825,-0.62,-0.15,-0.90
7844,-0.83,-0.17,-0.90
7862,-1.06,-0.16,-0.92
7881,-1.28,-0.14,-0.96
7899,-1.44,-0.13,-0.98
7918,-1.53,-0.14,-0.96
7936,-1.50,-0.13,-0.98
7955,-1.35,-0.15,-0.93
7973,-1.17,-0.18,-0.87
7992,-1.05,-0.19,-0.77
8010,-0.97,-0.17,-0.68
8029,-0.78,-0.16,-0.54
8047,-0.61,-0.15,-0.43
8066,-0.53,-0.10,-0.51
8084,-0.38,-0.03,-0.72
8103,-0.09,0.02,-0.87
8121,0.27,0.05,-0.93
8140,0.67,0.06,-0.95
8158,1.01,0.04,-1.02
8177,1.24,0.05,-1.14
8195,1.37,0.05,-1.27
8214,1.42,0.02,-1.32
8232,1.47,0.01,-1.27
8251,1.56,0.00,-1.21
8269,1.60,0.01,-1.22
8288,1.57,0.01,-1.22
8306,1.42,0.02,-1.16
8325,1.24,0.04,-1.09
8343,1.17,0.03,-1.00
8362,1.06,0.02,-0.90
8380,0.84,0.04,-0.87
8399,0.63,0.05,-0.86
8417,0.41,0.03,-0.85
8436,0.14,0.01,-0.93
8454,-0.12,-0.02,-0.94
8473,-0.32,-0.07,-0.89
8491,-0.54,-0.10,-0.90
8510,-0.78,-0.11,-0.93
8528,-1.02,-0.13,-0.93
8547,-1.23,-0.13,-0.94
8565,-1.36,-0.12,-0.98
8584,-1.44,-0.13,-0.98
8602,-1.44,-0.15,-0.93
8621,-1.36,-0.17,-0.88
8639,-1.30,-0.18,-0.84
8658,-1.17,-0.19,-0.78
8676,-1.03,-0.19,-0.74
8695,-0.95,-0.17,-0.72
8713,-0.86,-0.14,-0.68
8732,-0.75,-0.10,-0.64
8750,-0.66,-0.04,-0.65
8769,-0.51,0.02,-0.73
8787,-0.24,0.08,-0.83
8806,0.13,0.12,-0.87
8824,0.48,0.12,-0.90
8843,0.76,0.13,-1.00
8861,1.03,0.15,-1.17
8880,1.30,0.14,-1.30
8898,1.47,0.09,-1.32
8917,1.56,0.06,-1.26
8935,1.64,0.06,-1.23
8954,1.65,0.06,-1.27
8972,1.62,0.05,-1.30
8991,1.57,0.03,-1.25
9009,1.49,0.03,-1.16
9028,1.33,0.04,-1.07
9046,1.17,0.06,-1.01
9065,1.04,0.06,-0.96
9083,0.81,0.07,-0.92
9102,0.54,0.08,-0.90
9120,0.34,0.07,-0.90
9139,0.17,0.06,-0.94
9157,-0.04,0.04,-0.95
9176,-0.30,-0.01,-0.95
9194,-0.53,-0.05,-0.97
9213,-0.66,-0.09,-0.97
9231,-0.75,-0.13,-0.93
9250,-0.92,-0.14,-0.92
9268,-1.19,-0.16,-0.95
9287,-1.44,-0.18,-0.95
9305,-1.54,-0.19,-0.90
9324,-1.52,-0.22,-0.88
9342,-1.47,-0.22,-0.85
9361,-1.36,-0.21,-0.79
9379,-1.22,-0.20,-0.70
9398,-1.11,-0.18,-0.61
9416,-0.99,-0.15,-0.58
9435,-0.87,-0.11,-0.58
9453,-0.70,-0.07,-0.58
9472,-0.50,-0.03,-0.63
9490,-0.25,0.03,-0.72
9509,0.17,0.08,-0.84
9527,0.68,0.10,-0.95
9546,1.07,0.10,-1.10
9564,1.33,0.08,-1.22
9583,1.47,0.07,-1.31
9601,1.57,0.07,-1.28
9620,1.62,0.02,-1.27
9638,1.64,0.03,-1.27
9657,1.68,0.02,-1.28
9675,1.66,0.02,-1.23
9694,1.54,0.02,-1.17
9712,1.38,0.03,-1.10
9731,1.23,0.02,-1.04
9749,1.05,0.01,-0.98
9768,0.81,0.01,-0.93
9786,0.54,0.01,-0.88
9805,0.32,-0.00,-0.87
9823,0.11,-0.04,-0.91
9842,-0.19,-0.05,-0.99
9860,-0.51,-0.07,-1.02
9879,-0.78,-0.08,-0.98
9897,-1.00,-0.09,-0.99
9916,-1.20,-0.09,-0.95
9934,-1.42,-0.10,-0.95
9953,-1.58,-0.10,-0.95
9971,-1.60,-0.12,-0.91
9990,-1.45,-0.16,-0.77
10008,-1.25,-0.20,-0.70
10027,-1.12,-0.21,-0.65
10045,-1.04,-0.20,-0.57
10064,-0.93,-0.18,-0.50
10082,-0.75,-0.15,-0.50
10101,-0.54,-0.11,-0.61
10119,-0.38,-0.07,-0.68
10138,-0.30,-0.03,-0.72
10156,-0.09,-0.00,-0.64
10175,0.33,0.02,-0.64
10193,0.67,0.03,-0.84
10212,0.89,0.03,-1.12
10230,1.04,0.02,-1.25
10249,1.15,-0.01,-1.20
10267,1.12,-0.05,-1.14
10286,1.05,-0.07,-1.10
10304,0.96,-0.08,-1.09
10323,0.82,-0.08,-1.09
10341,0.73,-0.07,-1.12
10360,0.74,-0.07,-1.07
10378,0.69,-0.05,-1.08
10397,0.56,-0.03,-1.11
10415,0.48,-0.02,-1.09
10434,0.44,-0.03,-1.06
10452,0.38,-0.03,-1.04
10471,0.30,-0.04,-1.01
10489,0.23,-0.05,-0.97
10508,0.16,-0.06,-0.97
10526,0.12,-0.07,-0.96
10545,0.10,-0.08,-0.97
10563,0.13,-0.10,-0.98
10582,0.16,-0.12,-0.95
10600,0.13,-0.12,-0.93
10619,0.11,-0.12,-0.96
10637,0.14,-0.13,-0.97
10656,0.16,-0.13,-0.95
10674,0.16,-0.13,-0.94
10693,0.15,-0.14,-0.94
10711,0.14,-0.14,-0.91
10730,0.15,-0.16,-0.89
10748,0.13,-0.15,-0.90
10767,0.14,-0.14,-0.93
10785,0.16,-0.13,-0.96
10804,0.16,-0.11,-0.99
10822,0.17,-0.10,-1.00
10841,0.17,-0.09,-0.97
10859,0.16,-0.09,-0.96
10878,0.16,-0.09,-0.96
10896,0.19,-0.09,-0.95
10915,0.19,-0.09,-0.95
10933,0.18,-0.07,-0.98
10952,0.20,-0.07,-0.98
10970,0.23,-0.07,-0.96
10989,0.21,-0.07,-0.99
11007,0.21,-0.07,-1.00
11026,0.19,-0.08,-0.97
11044,0.20,-0.09,-0.96
11063,0.20,-0.09,-0.96
11081,0.18,-0.09,-0.96
11100,0.19,-0.10,-0.93
11118,0.18,-0.10,-0.93
11137,0.19,-0.09,-0.98
11155,0.21,-0.10,-0.98
11174,0.22,-0.11,-0.97
11192,0.19,-0.10,-0.97
11211,0.19,-0.11,-0.98
11229,0.19,-0.12,-0.96
11248,0.16,-0.12,-0.93
11266,0.15,-0.12,-0.95
11285,0.18,-0.12,-0.96
11303,0.15,-0.11,-0.97
11322,0.15,-0.10,-0.97
11340,0.17,-0.11,-0.95
11359,0.17,-0.11,-0.95
11377,0.18,-0.11,-0.96
11396,0.19,-0.11,-0.94
11414,0.17,-0.11,-0.93
11433,0.15,-0.11,-0.95
11451,0.17,-0.11,-0.95
11470,0.15,-0.09,-0.96
11488,0.16,-0.09,-0.96
11507,0.18,-0.09,-0.96
11525,0.16,-0.08,-0.95
11544,0.15,-0.08,-0.95
11562,0.16,-0.09,-0.95
11581,0.17,-0.09,-0.96
11599,0.19,-0.09,-0.97
11618,0.18,-0.09,-0.95
11636,0.17,-0.09,-0.95
11655,0.17,-0.10,-0.95
11673,0.18,-0.10,-0.93
11692,0.18,-0.10,-0.94
11710,0.18,-0.10,-0.93
11729,0.19,-0.10,-0.92
11747,0.17,-0.10,-0.97
11766,0.19,-0.10,-0.98
11784,0.19,-0.09,-0.95
11803,0.18,-0.10,-0.94
11821,0.17,-0.09,-0.96
11840,0.19,-0.09,-0.97
11858,0.20,-0.10,-0.95
11877,0.21,-0.11,-0.94
11895,0.21,-0.11,-0.97
11914,0.21,-0.11,-0.96
11932,0.18,-0.10,-0.95
11951,0.17,-0.10,-0.95
11969,0.17,-0.10,-0.95
11988,0.17,-0.09,-0.96
12006,0.15,-0.09,-0.97
12025,0.16,-0.09,-0.98
12043,0.18,-0.09,-0.97
12062,0.16,-0.09,-0.95
12080,0.14,-0.08,-0.96
12099,0.16,-0.07,-0.97
12117,0.19,-0.07,-0.97
12136,0.18,-0.07,-0.96
12154,0.17,-0.05,-0.94
12173,0.21,-0.03,-0.98
12191,0.30,-0.01,-1.00
12210,0.39,0.01,-1.04
12228,0.52,0.03,-1.12
12247,0.67,0.03,-1.16
12265,0.79,0.04,-1.18
12284,0.92,0.05,-1.19
12302,1.06,0.03,-1.23
12321,1.09,0.05,-1.25
12339,1.06,0.05,-1.23
12358,1.02,0.05,-1.25
12376,1.01,0.04,-1.20
12395,0.95,0.01,-1.07
12413,0.82,-0.02,-1.02
12432,0.64,-0.05,-1.02
12450,0.44,-0.05,-0.99
12469,0.30,-0.05,-0.98
12487,0.21,-0.05,-1.01
12506,0.10,-0.06,-0.92
12524,-0.15,-0.05,-0.88
12543,-0.48,-0.06,-0.80
12561,-0.86,-0.09,-0.70
12580,-1.23,-0.11,-0.67
12598,-1.49,-0.13,-0.66
12617,-1.63,-0.16,-0.63
12635,-1.66,-0.19,-0.64
12654,-1.67,-0.21,-0.60
12672,-1.72,-0.22,-0.52
12691,-1.77,-0.19,-0.43
12709,-1.73,-0.17,-0.35
12728,-1.57,-0.14,-0.32
12746,-1.35,-0.09,-0.31
12765,-1.16,-0.05,-0.26
12783,-0.96,0.01,-0.29
12802,-0.65,0.08,-0.48
12820,-0.29,0.14,-0.67
12839,0.10,0.19,-0.80
12857,0.55,0.23,-0.95
12876,1.09,0.26,-1.12
12894,1.70,0.24,-1.25
12913,2.20,0.22,-1.38
12931,2.50,0.13,-1.50
12950,2.58,0.11,-1.60
12968,2.61,0.10,-1.54
12987,2.55,0.11,-1.48
13005,2.39,0.10,-1.43
13024,2.16,0.08,-1.34
13042,1.93,0.10,-1.19
13061,1.70,0.09,-1.04
13079,1.38,0.10,-0.97
13098,1.06,0.09,-0.89
13116,0.67,0.10,-0.82
13135,0.28,0.10,-0.89
13153,-0.11,0.10,-1.01
13172,-0.52,0.07,-1.02
13190,-0.96,0.07,-0.96
13209,-1.41,0.03,-0.86
13227,-1.86,0.01,-0.80
13246,-2.21,-0.02,-0.80
13264,-2.31,-0.06,-0.80
13283,-2.16,-0.11,-0.73
13301,-1.83,-0.17,-0.63
13320,-1.53,-0.20,-0.54
13338,-1.35,-0.19,-0.47
13357,-1.15,-0.18,-0.44
13375,-0.96,-0.16,-0.42
13394,-0.80,-0.11,-0.43
13412,-0.52,-0.05,-0.54
13431,-0.06,-0.01,-0.73
13449,0.47,0.02,-0.87
13468,0.91,0.02,-0.98
13486,1.25,0.02,-1.10
13505,1.55,0.01,-1.19
13523,1.80,-0.01,-1.26
13542,1.96,0.00,-1.30
13560,2.00,-0.09,-1.31
13579,1.92,-0.09,-1.29
13597,1.87,-0.09,-1.19
13616,1.82,-0.11,-1.07
13634,1.58,-0.08,-1.06
13653,1.29,-0.03,-1.04
13671,1.15,-0.02,-1.01
13690,1.04,-0.02,-0.93
13708,0.82,0.01,-0.89
13727,0.62,-0.00,-0.91
13745,0.43,-0.02,-0.96
13764,0.19,-0.04,-0.96
13782,-0.08,-0.06,-0.97
13801,-0.31,-0.09,-0.97
13819,-0.51,-0.14,-0.93
13838,-0.77,-0.18,-0.86
13856,-1.00,-0.19,-0.82
13875,-1.13,-0.20,-0.82
13893,-1.24,-0.20,-0.83
13912,-1.40,-0.20,-0.82
13930,-1.61,-0.20,-0.75
13949,-1.84,-0.17,-0.60
13967,-2.04,-0.16,-0.49
13986,-2.01,-0.10,-0.43
14004,-1.68,-0.08,-0.43
14023,-1.28,-0.06,-0.47
14041,-0.99,-0.01,-0.48
14060,-0.75,0.03,-0.46
14078,-0.49,0.08,-0.50
14097,-0.14,0.12,-0.62
14115,0.26,0.14,-0.81
14134,0.73,0.09,-1.03
14152,1.10,0.10,-1.11
14171,1.33,0.05,-1.18
14189,1.41,-0.03,-1.16
14208,1.35,-0.04,-1.15
14226,1.36,-0.05,-1.19
14245,1.43,-0.08,-1.24
14263,1.46,-0.10,-1.23
14282,1.34,-0.10,-1.23
14300,1.14,-0.09,-1.19
14319,0.96,-0.06,-1.17
14337,0.84,-0.07,-1.12
14356,0.72,-0.06,-1.08
14374,0.58,-0.06,-1.05
14393,0.45,-0.05,-1.05
14411,0.32,-0.05,-1.05
14430,0.20,-0.06,-1.05
14448,0.10,-0.07,-1.04
14467,0.00,-0.07,-1.02
14485,-0.05,-0.09,-0.99
14504,-0.07,-0.12,-0.96
14522,-0.06,-0.14,-0.96
14541,-0.03,-0.17,-0.91
14559,-0.00,-0.19,-0.88
14578,0.02,-0.20,-0.88
14596,0.05,-0.21,-0.87
14615,0.09,-0.22,-0.87
14633,0.10,-0.21,-0.89
14652,0.12,-0.20,-0.91
14670,0.13,-0.20,-0.91
14689,0.14,-0.19,-0.90
14707,0.18,-0.20,-0.91
14726,0.21,-0.19,-0.91
14744,0.18,-0.18,-0.90
14763,0.17,-0.18,-0.88
14781,0.19,-0.18,-0.89
14800,0.23,-0.17,-0.93
14818,0.24,-0.16,-0.94
14837,0.24,-0.15,-0.95
14855,0.24,-0.14,-0.96
14874,0.24,-0.14,-0.96
14892,0.24,-0.13,-0.97
14911,0.21,-0.13,-0.95
14929,0.20,-0.13,-0.93
14948,0.24,-0.15,-0.91
14966,0.25,-0.15,-0.91
14985,0.20,-0.15,-0.95
15003,0.20,-0.14,-0.97
15022,0.24,-0.15,-0.95
15040,0.22,-0.14,-0.97
15059,0.19,-0.14,-0.99
15077,0.22,-0.14,-0.99
15096,0.24,-0.15,-0.99
15114,0.23,-0.15,-0.99
15133,0.20,-0.16,-0.97
15151,0.19,-0.16,-0.94
15170,0.19,-0.17,-0.94
15188,0.18,-0.17,-0.95
15207,0.18,-0.17,-0.94
15225,0.16,-0.16,-0.94
15244,0.18,-0.16,-0.96
15262,0.20,-0.15,-0.98
15281,0.22,-0.15,-0.98
15299,0.21,-0.15,-0.96
15318,0.17,-0.16,-0.95
15336,0.15,-0.16,-0.92
15355,0.16,-0.16,-0.91
15373,0.19,-0.17,-0.91
15392,0.19,-0.16,-0.91
15410,0.19,-0.15,-0.92
15429,0.21,-0.15,-0.92
15447,0.21,-0.14,-0.95
15466,0.22,-0.14,-0.96
15484,0.23,-0.14,-0.93
15503,0.22,-0.13,-0.93
15521,0.21,-0.13,-0.95
15540,0.21,-0.13,-0.93
15558,0.22,-0.14,-0.90
15577,0.21,-0.14,-0.90
15595,0.19,-0.12,-0.94
15614,0.21,-0.12,-0.94
15632,0.28,-0.12,-0.93
15651,0.27,-0.12,-0.96
15669,0.26,-0.12,-0.99
15688,0.27,-0.12,-0.96
15706,0.27,-0.13,-0.93
15725,0.23,-0.12,-0.95
15743,0.24,-0.10,-0.96
15762,0.29,-0.09,-0.96
15780,0.36,-0.07,-1.01
15799,0.44,-0.05,-1.06
15817,0.57,-0.03,-1.13
15836,0.74,-0.02,-1.19
15854,0.88,0.00,-1.24
15873,1.04,0.02,-1.27
15891,1.22,0.04,-1.34
15910,1.37,0.05,-1.43
15928,1.40,0.06,-1.44
15947,1.30,0.08,-1.36
15965,1.18,0.09,-1.28
15984,1.06,0.10,-1.27
16002,0.95,0.10,-1.22
16021,0.78,0.11,-1.21
16039,0.64,0.09,-1.18
16058,0.46,0.06,-1.05
16076,0.16,0.01,-0.92
16095,-0.14,-0.05,-0.80
16113,-0.46,-0.12,-0.64
16132,-0.89,-0.14,-0.52
16150,-1.34,-0.13,-0.43
16169,-1.75,-0.11,-0.28
16187,-2.18,-0.12,-0.17
16206,-2.61,-0.10,-0.09
16224,-2.87,-0.08,-0.03
16243,-2.83,-0.06,0.01
16261,-2.47,-0.05,0.09
16280,-1.93,-0.06,0.16
16298,-1.51,-0.07,0.20
16317,-1.26,-0.05,0.25
16335,-1.10,0.01,0.17
16354,-0.87,0.13,-0.18
16372,-0.35,0.22,-0.61
16391,0.36,0.27,-1.00
16409,1.07,0.27,-1.33
16428,1.70,0.20,-1.55
16446,2.14,0.13,-1.71
16465,2.41,0.07,-1.86
16483,2.51,0.02,-1.90
16502,2.48,-0.01,-1.87
16520,2.43,-0.02,-1.82
16539,2.40,-0.07,-1.72
16557,2.22,-0.00,-1.61
16576,2.05,0.02,-1.45
16594,1.88,0.04,-1.30
16613,1.59,0.08,-1.22
16631,1.29,0.09,-1.11
16650,1.05,0.09,-0.93
16668,0.69,0.09,-0.89
16687,0.41,0.09,-0.92
16705,0.20,0.04,-0.88
16724,-0.09,0.04,-0.83
16742,-0.44,0.02,-0.81
16761,-0.83,-0.01,-0.79
16779,-1.21,-0.04,-0.77
16798,-1.49,-0.08,-0.74
16816,-1.72,-0.11,-0.68
16835,-1.92,-0.13,-0.61
16853,-2.09,-0.13,-0.57
16872,-2.18,-0.12,-0.52
16890,-2.11,-0.13,-0.41
16909,-1.93,-0.12,-0.30
16927,-1.65,-0.12,-0.30
16946,-1.38,-0.12,-0.29
16964,-1.13,-0.11,-0.24
16983,-0.87,-0.10,-0.30
17001,-0.58,-0.06,-0.44
17020,-0.18,0.00,-0.65
17038,0.40,0.06,-0.92
17057,1.05,0.03,-1.11
17075,1.57,-0.02,-1.21
17094,1.90,-0.08,-1.31
17112,2.04,-0.13,-1.45
17131,2.11,-0.13,-1.55
17149,2.19,-0.15,-1.58
17168,2.27,-0.12,-1.54
17186,2.26,-0.19,-1.47
17205,2.09,-0.19,-1.35
17223,1.87,-0.10,-1.25
17242,1.66,-0.14,-1.09
17260,1.29,-0.10,-0.99
17279,1.00,-0.04,-1.01
17297,0.80,-0.02,-0.95
17316,0.52,-0.01,-0.93
17334,0.18,0.00,-1.00
17353,-0.17,-0.01,-1.00
17371,-0.52,-0.03,-0.98
17390,-0.82,-0.06,-0.92
17408,-1.05,-0.09,-0.83
17427,-1.27,-0.11,-0.70
17445,-1.55,-0.11,-0.58
17464,-1.83,-0.11,-0.52
17482,-2.04,-0.12,-0.48
17501,-2.13,-0.14,-0.44
17519,-2.04,-0.14,-0.38
17538,-1.77,-0.16,-0.29
17556,-1.51,-0.17,-0.23
17575,-1.34,-0.13,-0.25
17593,-1.15,-0.12,-0.27
17612,-1.08,-0.09,-0.28
17630,-1.09,-0.04,-0.27
17649,-1.02,0.04,-0.27
17667,-0.88,0.15,-0.30
17686,-0.65,0.35,-0.41
17704,-0.16,0.56,-0.72
17723,0.62,0.69,-1.15
17741,1.54,0.69,-1.52
17760,2.32,0.47,-1.71
17778,2.66,0.32,-1.64
17797,2.41,0.09,-1.46
17815,1.60,0.12,-1.30
17834,1.06,0.14,-1.30
17852,1.10,0.07,-1.35
17871,1.32,0.02,-1.35
17889,1.34,-0.00,-1.28
17908,1.23,-0.00,-1.21
17926,1.02,0.01,-1.20
17945,0.80,0.03,-1.20
17963,0.63,0.04,-1.16
17982,0.55,0.05,-1.11
18000,0.49,0.04,-1.06
18019,0.38,0.03,-1.06
18037,0.23,0.02,-1.02
18056,0.11,-0.01,-0.96
18074,0.01,-0.03,-0.97
18093,-0.07,-0.06,-0.97
18111,-0.11,-0.08,-0.97
18130,-0.10,-0.11,-0.96
18148,-0.05,-0.14,-0.91
18167,-0.01,-0.17,-0.88
18185,-0.02,-0.18,-0.87
18204,-0.04,-0.19,-0.84
18222,-0.03,-0.20,-0.83
18241,-0.02,-0.20,-0.84
18259,0.03,-0.19,-0.86
18278,0.07,-0.18,-0.86
18296,0.10,-0.17,-0.90
18315,0.14,-0.17,-0.91
18333,0.13,-0.15,-0.90
18352,0.13,-0.14,-0.93
18370,0.20,-0.14,-0.94
18389,0.22,-0.14,-0.93
18407,0.22,-0.13,-0.92
18426,0.19,-0.12,-0.93
18444,0.18,-0.12,-0.95
18463,0.21,-0.11,-0.95
18481,0.20,-0.10,-0.95
18500,0.20,-0.08,-0.99
18518,0.26,-0.08,-1.00
18537,0.28,-0.09,-0.97
18555,0.27,-0.09,-0.98
18574,0.28,-0.10,-0.99
18592,0.26,-0.10,-0.98
18611,0.24,-0.11,-0.95
18629,0.23,-0.11,-0.93
18648,0.20,-0.11,-0.95
18666,0.18,-0.11,-0.95
18685,0.18,-0.11,-0.93
18703,0.19,-0.11,-0.94
18722,0.21,-0.12,-0.96
18740,0.21,-0.13,-0.94
18759,0.17,-0.12,-0.91
18777,0.19,-0.12,-0.94
18796,0.26,-0.13,-0.96
18814,0.24,-0.12,-0.96
18833,0.21,-0.12,-0.97
18851,0.20,-0.12,-0.95
18870,0.19,-0.12,-0.92
18888,0.17,-0.11,-0.92
18907,0.21,-0.11,-0.94
18925,0.27,-0.11,-0.95
18944,0.27,-0.11,-0.96
18962,0.25,-0.10,-0.96
18981,0.24,-0.10,-0.97
18999,0.25,-0.10,-0.96
19018,0.24,-0.09,-0.95
19036,0.22,-0.09,-0.94
19055,0.23,-0.09,-0.93
19073,0.24,-0.08,-0.95
19092,0.23,-0.07,-0.99
19110,0.24,-0.08,-0.99
19129,0.24,-0.08,-0.97
19147,0.21,-0.08,-0.95
19166,0.19,-0.08,-0.95
19184,0.21,-0.09,-0.94
19203,0.24,-0.10,-0.93
19221,0.22,-0.10,-0.94
19240,0.21,-0.09,-0.96
19258,0.20,-0.09,-0.96
19277,0.22,-0.09,-0.95
19295,0.23,-0.09,-0.97
19314,0.23,-0.10,-0.98
19332,0.19,-0.11,-0.94
19351,0.18,-0.12,-0.93
19369,0.20,-0.12,-0.93
19388,0.18,-0.12,-0.95
19406,0.17,-0.11,-0.93
19425,0.16,-0.10,-0.92
19443,0.16,-0.09,-0.92
19462,0.18,-0.08,-0.94
19480,0.20,-0.06,-0.93
19499,0.23,-0.04,-0.93
19517,0.32,-0.02,-0.98
19536,0.46,-0.01,-1.03
19554,0.56,0.00,-1.04
19573,0.73,0.04,-1.13
19591,1.01,0.06,-1.25
19610,1.27,0.08,-1.30
19628,1.41,0.14,-1.36
19647,1.52,0.15,-1.40
19665,1.54,0.18,-1.43
19684,1.49,0.19,-1.38
19702,1.33,0.20,-1.27
19721,1.16,0.19,-1.26
19739,1.07,0.18,-1.25
19758,0.92,0.18,-1.13
19776,0.74,0.18,-1.04
19795,0.55,0.13,-0.91
19813,0.20,0.09,-0.78
19832,-0.24,0.07,-0.69
19850,-0.69,0.03,-0.67
19869,-1.13,0.01,-0.62
19887,-1.55,-0.02,-0.45
19906,-2.05,-0.06,-0.28
19924,-2.54,-0.06,-0.16
19943,-2.95,-0.05,-0.04
19961,-3.21,-0.02,-0.02
19980,-3.21,0.05,0.03
19998,-2.85,0.08,0.19
20017,-2.28,0.12,0.18
20035,-1.72,0.15,0.09
20054,-1.27,0.17,0.04
20072,-0.94,0.23,-0.12
20091,-0.53,0.32,-0.40
20109,0.12,0.42,-0.79
20128,1.05,0.50,-1.30
20146,2.06,0.42,-1.68
20165,2.82,0.27,-1.87
20183,3.22,0.13,-1.91
20202,3.20,0.03,-1.94
20220,2.94,0.03,-1.95
20239,2.76,0.07,-1.89
20257,2.71,-0.04,-1.75
20276,2.51,-0.03,-1.58
20294,2.24,0.01,-1.38
20313,1.91,0.11,-1.21
20331,1.49,0.07,-1.12
20350,1.04,0.15,-1.09
20368,0.74,0.16,-1.04
20387,0.42,0.17,-0.99
20405,0.02,0.17,-0.90
20424,-0.52,0.20,-0.83
20442,-1.11,0.24,-0.70
20461,-1.76,0.25,-0.49
20479,-2.50,0.21,-0.26
20498,-3.22,0.21,-0.14
20516,-3.60,0.26,-0.18
20535,-3.28,0.26,-0.11
20553,-2.47,0.13,0.01
20572,-1.89,0.06,0.01
20590,-1.65,0.05,0.05
20609,-1.45,0.05,0.09
20627,-1.11,0.06,-0.00
20646,-0.70,0.10,-0.20
20664,-0.27,0.13,-0.44
20683,0.25,0.22,-0.71
20701,0.91,0.25,-1.04
20720,1.65,0.19,-1.41
20738,2.29,0.10,-1.62
20757,2.74,-0.00,-1.81
20775,2.96,-0.06,-1.91
20794,2.91,-0.08,-1.92
20812,2.68,-0.08,-1.86
20831,2.40,-0.05,-1.74
20849,2.21,-0.11,-1.59
20868,1.99,-0.06,-1.46
20886,1.78,-0.03,-1.28
20905,1.54,-0.00,-1.03
20923,1.09,0.02,-1.01
20942,0.65,0.12,-1.07
20960,0.35,0.15,-1.07
20979,0.09,0.14,-0.99
20997,-0.26,0.12,-0.88
21016,-0.69,0.11,-0.72
21034,-1.20,0.09,-0.52
21053,-1.81,0.10,-0.36
21071,-2.43,0.13,-0.21
21090,-2.97,0.16,-0.09
21108,-3.20,0.17,-0.10
21127,-3.01,0.15,-0.10
21145,-2.51,0.10,0.03
21164,-2.02,0.07,0.11
21182,-1.69,0.07,0.08
21201,-1.40,0.10,0.08
21219,-1.12,0.11,0.12
21238,-0.80,0.15,-0.02
21256,-0.39,0.23,-0.35
21275,0.15,0.30,-0.72
21293,0.73,0.29,-1.06
21312,1.25,0.25,-1.31
21330,1.67,0.18,-1.48
21349,2.07,0.12,-1.64
21367,2.36,0.01,-1.79
21386,2.43,-0.04,-1.87
21404,2.36,-0.04,-1.91
21423,2.29,-0.02,-1.90
21441,2.21,-0.05,-1.89
21460,2.11,-0.03,-1.72
21478,1.91,-0.03,-1.50
21497,1.52,-0.03,-1.33
21515,1.10,0.03,-1.29
21534,0.88,0.05,-1.26
21552,0.77,0.07,-1.16
21571,0.66,0.09,-1.10
21589,0.49,0.11,-1.10
21608,0.31,0.10,-1.00
21626,0.07,0.05,-0.97
21645,-0.21,0.04,-0.87
21663,-0.45,-0.01,-0.76
21682,-0.66,-0.07,-0.65
21700,-0.83,-0.13,-0.59
21719,-0.92,-0.18,-0.58
21737,-0.93,-0.26,-0.55
21756,-0.90,-0.33,-0.47
21774,-0.91,-0.36,-0.34
21793,-1.03,-0.38,-0.23
21811,-1.25,-0.36,-0.20
21830,-1.47,-0.34,-0.17
21848,-1.64,-0.33,-0.12
21867,-1.76,-0.30,-0.07
21885,-1.77,-0.24,-0.04
21904,-1.65,-0.22,-0.05
21922,-1.52,-0.19,-0.08
21941,-1.43,-0.13,-0.09
21959,-1.31,-0.04,-0.14
21978,-1.02,0.07,-0.35
21996,-0.56,0.15,-0.65
22015,-0.03,0.17,-0.91
22033,0.56,0.20,-1.08
22052,1.06,0.14,-1.21
22070,1.44,0.07,-1.34
22089,1.57,-0.01,-1.45
22107,1.49,-0.05,-1.55
22126,1.33,-0.08,-1.54
22144,1.17,-0.11,-1.47
22163,1.09,-0.14,-1.39
22181,1.03,-0.17,-1.41
22200,1.01,-0.14,-1.38
22218,0.99,-0.15,-1.31
22237,0.86,-0.12,-1.29
22255,0.68,-0.10,-1.32
22274,0.56,-0.10,-1.26
22292,0.51,-0.12,-1.16
22311,0.39,-0.13,-1.10
22329,0.27,-0.13,-1.06
22348,0.18,-0.15,-0.96
22366,0.08,-0.17,-0.89
22385,-0.03,-0.18,-0.92
22403,-0.12,-0.19,-0.95
22422,-0.15,-0.21,-0.91
22440,-0.15,-0.23,-0.84
22459,-0.15,-0.24,-0.84
22477,-0.11,-0.25,-0.88
22496,-0.06,-0.26,-0.85
22514,-0.09,-0.28,-0.78
22533,-0.11,-0.28,-0.78
22551,-0.01,-0.28,-0.83
22570,0.08,-0.29,-0.87
22588,0.07,-0.29,-0.87
22607,0.06,-0.27,-0.87
22625,0.10,-0.26,-0.91
22644,0.12,-0.26,-0.93
22662,0.12,-0.25,-0.92
22681,0.13,-0.23,-0.92
22699,0.15,-0.23,-0.96
22718,0.16,-0.22,-0.97
22736,0.15,-0.24,-0.91
22755,0.10,-0.22,-0.91
22773,0.12,-0.22,-0.96
22792,0.16,-0.21,-0.97
22810,0.18,-0.21,-0.98
22829,0.19,-0.20,-0.99
22847,0.18,-0.20,-0.99
22866,0.16,-0.20,-0.98
22884,0.18,-0.21,-0.98
22903,0.19,-0.22,-0.96
22921,0.16,-0.22,-0.98
22940,0.18,-0.22,-0.95
22958,0.18,-0.23,-0.93
22977,0.14,-0.23,-0.95
22995,0.13,-0.23,-0.95
23014,0.16,-0.23,-0.93
23032,0.19,-0.23,-0.94
23051,0.19,-0.23,-0.97
23069,0.19,-0.22,-0.98
23088,0.21,-0.22,-0.98
23106,0.19,-0.23,-0.96
23125,0.13,-0.23,-0.93
23143,0.09,-0.24,-0.90
23162,0.08,-0.24,-0.92
23180,0.11,-0.24,-0.95
23199,0.11,-0.23,-0.93
23217,0.09,-0.22,-0.93
23236,0.10,-0.21,-0.95
23254,0.11,-0.20,-0.95
23273,0.13,-0.20,-0.95
23291,0.15,-0.21,-0.95
23310,0.13,-0.21,-0.94
23328,0.12,-0.22,-0.92
23347,0.11,-0.22,-0.89
23365,0.11,-0.22,-0.91
23384,0.14,-0.22,-0.94
23402,0.17,-0.21,-0.93
23421,0.17,-0.22,-0.93
23439,0.15,-0.20,-0.95
23458,0.15,-0.19,-0.98
23476,0.18,-0.20,-0.98
23495,0.15,-0.20,-0.94
23513,0.12,-0.20,-0.93
23532,0.13,-0.21,-0.93
23550,0.16,-0.22,-0.93
23569,0.17,-0.22,-0.94
23587,0.18,-0.22,-0.93
23606,0.16,-0.22,-0.94
23624,0.17,-0.21,-0.96
23643,0.20,-0.22,-0.97
23661,0.19,-0.22,-0.95
23680,0.14,-0.21,-0.94
23698,0.14,-0.21,-0.94
23717,0.15,-0.22,-0.93
23735,0.14,-0.22,-0.92
23754,0.11,-0.21,-0.94
23772,0.13,-0.21,-0.94
23791,0.16,-0.21,-0.93
23809,0.14,-0.21,-0.93
23828,0.12,-0.19,-0.93
23846,0.13,-0.19,-0.92
23865,0.18,-0.17,-0.95
23883,0.25,-0.16,-1.01
23902,0.38,-0.14,-1.11
23920,0.56,-0.11,-1.28
23939,0.77,-0.08,-1.42
23957,0.94,-0.06,-1.53
23976,1.02,-0.05,-1.55
23994,1.01,-0.04,-1.44
24013,1.01,-0.05,-1.24
24031,1.05,-0.06,-1.18
24050,1.05,-0.05,-1.22
24068,0.99,-0.04,-1.23
24087,0.93,-0.03,-1.18
24105,0.88,-0.06,-1.07
24124,0.89,-0.09,-0.92
24142,0.78,-0.10,-0.84
24161,0.53,-0.06,-0.85
24179,0.35,-0.11,-0.79
24198,0.10,-0.14,-0.67
24216,-0.27,-0.14,-0.62
24235,-0.60,-0.15,-0.63
24253,-0.82,-0.17,-0.58
24272,-1.03,-0.19,-0.46
24290,-1.34,-0.18,-0.33
24309,-1.76,-0.16,-0.21
24327,-2.20,-0.08,-0.10
24346,-2.62,-0.03,-0.03
24364,-3.02,0.04,-0.08
24383,-3.25,0.15,-0.08
24401,-3.04,0.22,0.15
24420,-2.45,0.22,0.34
24438,-1.85,0.24,0.31
24457,-1.46,0.33,0.11
24475,-1.07,0.37,-0.16
24494,-0.59,0.46,-0.56
24512,0.02,0.54,-0.83
24531,0.75,0.62,-1.19
24549,1.63,0.61,-1.69
24568,2.52,0.54,-2.12
24586,3.23,0.35,-2.36
24605,3.55,0.21,-2.34
24623,3.44,0.12,-2.17
24642,3.02,0.08,-2.00
24660,2.60,0.07,-1.86
24679,2.35,0.08,-1.68
24697,2.26,0.08,-1.51
24716,2.10,0.11,-1.39
24734,1.79,0.17,-1.30
24753,1.46,0.21,-1.20
24771,1.12,0.22,-1.06
24790,0.79,0.23,-0.98
24808,0.47,0.23,-0.90
24827,0.18,0.16,-0.70
24845,-0.16,0.18,-0.78
24864,-0.50,0.17,-0.70
24882,-0.89,0.11,-0.53
24901,-1.39,0.08,-0.33
24919,-2.07,0.05,-0.15
24938,-2.79,0.07,-0.03
24956,-3.35,0.13,-0.07
24975,-3.31,0.17,-0.04
24993,-2.57,0.10,0.05
25012,-1.73,0.00,0.05
25030,-1.42,-0.00,-0.03
25049,-1.37,0.02,-0.03
25067,-1.24,0.03,-0.04
25086,-1.01,0.06,-0.20
25104,-0.69,0.09,-0.46
25123,-0.26,0.14,-0.69
25141,0.36,0.26,-1.03
25160,1.18,0.26,-1.41
25178,2.07,0.19,-1.61
25197,2.81,0.07,-1.86
25215,3.12,-0.05,-2.07
25234,2.95,-0.08,-2.15
25252,2.52,-0.05,-2.07
25271,2.19,-0.07,-1.90
25289,2.06,-0.06,-1.66
25308,2.02,-0.08,-1.48
25326,1.84,-0.05,-1.40
25345,1.47,0.02,-1.36
25363,1.10,0.05,-1.26
25382,0.77,0.10,-1.14
25400,0.52,0.09,-1.03
25419,0.26,0.08,-1.02
25437,0.02,0.07,-1.00
25456,-0.15,-0.02,-0.82
25474,-0.46,-0.01,-0.74
25493,-0.83,-0.00,-0.63
25511,-1.26,0.01,-0.48
25530,-1.74,-0.06,-0.28
25548,-2.34,-0.05,-0.14
25567,-2.85,0.03,-0.17
25585,-2.98,0.07,-0.15
25604,-2.64,0.07,-0.00
25622,-2.07,0.01,0.10
25641,-1.66,0.01,0.03
25659,-1.44,0.06,-0.02
25678,-1.27,0.06,0.02
25696,-1.07,0.11,-0.08
25715,-0.73,0.15,-0.33
25733,-0.26,0.24,-0.61
25752,0.42,0.28,-0.94
25770,1.22,0.26,-1.36
25789,1.94,0.15,-1.63
25807,2.44,0.01,-1.82
25826,2.61,-0.06,-2.01
25844,2.54,-0.08,-2.09
25863,2.43,-0.09,-2.05
25881,2.29,-0.09,-1.96
25900,2.20,-0.09,-1.77
25918,2.09,-0.06,-1.65
25937,1.93,-0.01,-1.62
25955,1.69,0.05,-1.60
25974,1.43,0.10,-1.47
25992,1.18,0.13,-1.29
26011,0.93,0.15,-1.16
26029,0.72,0.08,-1.03
26048,0.38,0.13,-1.03
26066,0.07,0.13,-0.97
26085,-0.16,0.10,-0.85
26103,-0.40,0.05,-0.62
26122,-0.72,-0.01,-0.53
26140,-1.10,-0.02,-0.34
26159,-1.46,-0.08,-0.17
26177,-1.82,-0.11,-0.02
26196,-2.16,-0.10,-0.05
26214,-2.30,-0.06,-0.17
26233,-2.17,-0.05,-0.22
26251,-1.90,-0.08,-0.15
26270,-1.77,-0.08,-0.07
26288,-1.74,-0.06,-0.03
26307,-1.66,-0.05,-0.04
26325,-1.56,-0.04,-0.11
26344,-1.43,0.00,-0.20
26362,-1.22,0.01,-0.26
26381,-1.04,0.06,-0.35
26399,-0.71,0.26,-0.54
26418,-0.05,0.40,-0.89
26436,0.77,0.38,-1.24
26455,1.36,0.26,-1.49
26473,1.60,0.16,-1.56
26492,1.64,0.14,-1.58
26510,1.68,0.11,-1.62
26529,1.82,0.07,-1.66
26547,2.03,-0.02,-1.66
26566,1.99,-0.12,-1.62
26584,1.70,-0.12,-1.41
26603,1.36,-0.13,-1.27
26621,1.15,-0.10,-1.27
26640,1.00,-0.10,-1.29
26658,0.82,-0.08,-1.25
26677,0.67,-0.07,-1.16
26695,0.56,-0.08,-1.08
26714,0.42,-0.07,-1.03
26732,0.24,-0.07,-1.00
26751,0.05,-0.09,-0.97
26769,-0.15,-0.10,-0.91
26788,-0.33,-0.13,-0.86
26806,-0.47,-0.15,-0.88
26825,-0.54,-0.18,-0.87
26843,-0.54,-0.21,-0.81
26862,-0.48,-0.23,-0.83
26880,-0.38,-0.25,-0.82
26899,-0.33,-0.30,-0.75
26917,-0.30,-0.30,-0.73
26936,-0.25,-0.31,-0.76
26954,-0.17,-0.32,-0.78
26973,-0.14,-0.32,-0.79
26991,-0.10,-0.30,-0.79
27010,-0.00,-0.29,-0.82
27028,0.09,-0.29,-0.87
27047,0.13,-0.27,-0.90
27065,0.17,-0.27,-0.91
27084,0.20,-0.26,-0.88
27102,0.21,-0.25,-0.90
27121,0.21,-0.25,-0.95
27139,0.21,-0.24,-0.95
27158,0.20,-0.25,-0.93
27176,0.17,-0.24,-0.94
27195,0.18,-0.23,-0.97
27213,0.21,-0.23,-0.99
27232,0.21,-0.21,-1.01
27250,0.22,-0.20,-1.02
27269,0.24,-0.20,-1.01
27287,0.24,-0.21,-1.00
27306,0.20,-0.21,-1.01
27324,0.15,-0.21,-1.01
27343,0.15,-0.22,-0.99
27361,0.14,-0.23,-0.98
27380,0.10,-0.23,-0.97
27398,0.09,-0.22,-0.97
27417,0.12,-0.23,-0.96
27435,0.12,-0.23,-0.95
27454,0.11,-0.22,-0.96
27472,0.13,-0.24,-0.94
27491,0.14,-0.24,-0.94
27509,0.13,-0.25,-0.95
27528,0.12,-0.26,-0.93
27546,0.09,-0.26,-0.92
27565,0.08,-0.26,-0.93
27583,0.07,-0.25,-0.91
27602,0.06,-0.25,-0.90
27620,0.07,-0.25,-0.93
27639,0.09,-0.24,-0.94
27657,0.12,-0.24,-0.94
27676,0.14,-0.24,-0.92
27694,0.09,-0.23,-0.93
27713,0.09,-0.23,-0.93
27731,0.13,-0.24,-0.91
27750,0.11,-0.24,-0.91
27768,0.06,-0.23,-0.91
27787,0.07,-0.23,-0.91
27805,0.09,-0.23,-0.94
27824,0.12,-0.22,-0.95
27842,0.14,-0.22,-0.97
27861,0.16,-0.22,-0.96
27879,0.16,-0.22,-0.97
27898,0.16,-0.22,-0.98
27916,0.15,-0.22,-0.96
27935,0.13,-0.23,-0.93
27953,0.12,-0.23,-0.94
27972,0.09,-0.23,-0.94
27990,0.07,-0.23,-0.93
28009,0.09,-0.22,-0.95
28027,0.13,-0.22,-0.97
28046,0.17,-0.23,-0.97
28064,0.14,-0.22,-0.97
28083,0.12,-0.23,-0.95
28101,0.13,-0.24,-0.94
28120,0.13,-0.24,-0.93
28138,0.14,-0.25,-0.90
28157,0.14,-0.25,-0.90
28175,0.14,-0.24,-0.92
28194,0.15,-0.23,-0.94
28212,0.14,-0.23,-0.92
28231,0.07,-0.20,-0.96
28249,0.09,-0.21,-1.02
28268,0.12,-0.22,-0.99
28286,0.04,-0.20,-0.91
28305,-0.01,-0.19,-0.89
28323,-0.03,-0.19,-0.87
28342,-0.04,-0.18,-0.85
28360,0.01,-0.17,-0.85
28379,0.11,-0.17,-0.88
28397,0.24,-0.15,-0.98
28416,0.46,-0.12,-1.09
28434,0.74,-0.11,-1.26
28453,0.98,-0.10,-1.35
28471,1.22,-0.08,-1.41
28490,1.43,-0.10,-1.43
28508,1.50,-0.11,-1.44
28527,1.45,-0.11,-1.38
28545,1.30,-0.10,-1.32
28564,1.11,-0.09,-1.22
28582,0.92,-0.10,-1.12
28601,0.77,-0.10,-1.07
28619,0.61,-0.09,-1.02
28638,0.43,-0.12,-0.87
28656,0.12,-0.12,-0.87
28675,-0.20,-0.10,-0.80
28693,-0.49,-0.13,-0.70
28712,-0.89,-0.14,-0.56
28730,-1.45,-0.12,-0.43
28749,-2.05,-0.10,-0.31
28767,-2.58,-0.03,-0.24
28786,-2.85,0.02,-0.19
28804,-2.75,0.06,-0.17
28823,-2.35,0.05,-0.14
28841,-1.80,0.04,-0.16
28860,-1.36,0.04,-0.17
28878,-1.07,0.05,-0.19
28897,-0.80,0.04,-0.19
28915,-0.49,0.05,-0.30
28934,-0.04,0.08,-0.61
28952,0.57,0.09,-1.00
28971,1.23,0.07,-1.35
28989,1.84,0.00,-1.59
29008,2.26,-0.12,-1.70
29026,2.42,-0.20,-1.76
29045,2.32,-0.25,-1.76
29063,2.12,-0.25,-1.70
29082,1.96,-0.25,-1.62
29100,1.88,-0.28,-1.49
29119,1.63,-0.19,-1.46
29137,1.36,-0.14,-1.33
29156,1.16,-0.15,-1.17
29174,0.85,-0.06,-1.13
29193,0.47,-0.03,-1.05
29211,0.12,-0.02,-0.99
29230,-0.24,-0.02,-0.90
29248,-0.67,-0.03,-0.82
29267,-1.11,-0.05,-0.68
29285,-1.56,-0.07,-0.54
29304,-1.93,-0.05,-0.43
29322,-2.21,-0.06,-0.32
29341,-2.35,-0.04,-0.26
29359,-2.23,-0.03,-0.23
29378,-1.87,-0.06,-0.19
29396,-1.44,-0.07,-0.20
29415,-1.15,-0.05,-0.21
29433,-0.96,-0.03,-0.23
29452,-0.72,-0.04,-0.28
29470,-0.41,-0.03,-0.42
29489,0.01,0.00,-0.67
29507,0.57,0.05,-1.04
29526,1.24,0.04,-1.40
29544,1.88,-0.03,-1.62
29563,2.33,-0.12,-1.78
29581,2.46,-0.18,-1.84
29600,2.29,-0.20,-1.85
29618,2.00,-0.19,-1.79
29637,1.82,-0.24,-1.65
29655,1.65,-0.17,-1.50
29674,1.58,-0.14,-1.41
29692,1.35,-0.12,-1.34
29711,1.02,-0.05,-1.28
29729,0.72,-0.04,-1.15
29748,0.43,-0.05,-0.98
29766,0.07,-0.01,-1.00
29785,-0.30,0.01,-0.96
29803,-0.66,0.01,-0.92
29822,-1.01,-0.02,-0.84
29840,-1.39,-0.07,-0.67
29859,-1.79,-0.10,-0.50
29877,-2.10,-0.12,-0.36
29896,-2.21,-0.12,-0.27
29914,-2.10,-0.14,-0.18
29933,-1.81,-0.17,-0.11
29951,-1.52,-0.18,-0.08
29970,-1.30,-0.12,-0.13
29988,-1.00,-0.11,-0.21
30007,-0.71,-0.12,-0.25
30025,-0.56,-0.11,-0.28
30044,-0.37,-0.06,-0.44
30062,-0.01,-0.03,-0.70
30081,0.47,-0.02,-0.94
30099,0.97,-0.02,-1.18
30118,1.41,-0.05,-1.37
30136,1.78,-0.09,-1.50
30155,2.06,-0.12,-1.63
30173,2.21,-0.15,-1.74
30192,2.23,-0.14,-1.80
30210,2.17,-0.15,-1.80
30229,1.97,-0.17,-1.66
30247,1.69,-0.11,-1.48
30266,1.40,-0.07,-1.44
30284,1.15,-0.03,-1.39
30303,0.93,0.01,-1.35
30321,0.73,0.06,-1.27
30340,0.53,0.08,-1.22
30358,0.31,0.08,-1.19
30377,-0.01,0.14,-1.13
30395,-0.37,0.08,-1.04
30414,-0.69,0.05,-0.87
30432,-0.91,-0.02,-0.76
30451,-1.07,-0.09,-0.65
30469,-1.21,-0.14,-0.50
30488,-1.36,-0.20,-0.39
30506,-1.55,-0.22,-0.32
30525,-1.72,-0.24,-0.27
30543,-1.80,-0.22,-0.20
30562,-1.79,-0.23,-0.13
30580,-1.73,-0.25,-0.05
30599,-1.62,-0.23,-0.04
30617,-1.44,-0.23,-0.08
30636,-1.22,-0.19,-0.19
30654,-0.96,-0.15,-0.32
30673,-0.66,-0.09,-0.51
30691,-0.33,-0.07,-0.69
30710,-0.01,-0.06,-0.81
30728,0.26,-0.06,-0.89
30747,0.49,-0.07,-0.94
30765,0.69,-0.09,-0.99
30784,0.83,-0.10,-1.07
30802,0.92,-0.06,-1.25
30821,1.09,-0.04,-1.45
30839,1.27,-0.08,-1.54
30858,1.36,-0.10,-1.56
30876,1.34,-0.11,-1.49
30895,1.14,-0.19,-1.40
30913,0.83,-0.14,-1.17
30932,0.65,-0.13,-1.10
30950,0.64,-0.16,-1.13
30969,0.57,-0.16,-1.10
30987,0.44,-0.14,-1.06
31006,0.34,-0.16,-1.02
31024,0.28,-0.15,-0.99
31043,0.23,-0.14,-0.99
31061,0.13,-0.14,-1.01
31080,0.07,-0.16,-1.02
31098,0.05,-0.17,-0.98
31117,0.01,-0.19,-0.93
31135,-0.03,-0.21,-0.90
31154,-0.06,-0.23,-0.87
31172,-0.06,-0.23,-0.88
31191,-0.02,-0.24,-0.90
31209,0.03,-0.25,-0.90
31228,0.06,-0.25,-0.90
31246,0.09,-0.25,-0.91
31265,0.12,-0.25,-0.92
31283,0.14,-0.25,-0.94
31302,0.14,-0.25,-0.95
31320,0.11,-0.25,-0.94
31339,0.09,-0.24,-0.94
31357,0.10,-0.24,-0.92
31376,0.09,-0.23,-0.93
31394,0.11,-0.22,-0.93
31413,0.16,-0.23,-0.92
31431,0.16,-0.22,-0.95
31450,0.16,-0.21,-0.99
31468,0.18,-0.21,-0.95
31487,0.19,-0.21,-0.92
31505,0.16,-0.20,-0.95
31524,0.14,-0.20,-0.96
31542,0.14,-0.19,-0.94
31561,0.14,-0.19,-0.92
31579,0.14,-0.19,-0.94
31598,0.12,-0.19,-0.96
31616,0.15,-0.20,-0.94
31635,0.16,-0.21,-0.93
31653,0.13,-0.21,-0.95
31672,0.12,-0.21,-0.93
31690,0.12,-0.22,-0.93
31709,0.13,-0.21,-0.96
31727,0.15,-0.22,-0.97
31746,0.13,-0.21,-0.95
31764,0.09,-0.20,-0.95
31783,0.10,-0.20,-0.96
31801,0.11,-0.21,-0.95
31820,0.10,-0.21,-0.95
31838,0.10,-0.22,-0.96
31857,0.11,-0.22,-0.96
31875,0.11,-0.23,-0.93
31894,0.09,-0.22,-0.94
31912,0.09,-0.21,-0.94
31931,0.10,-0.21,-0.97
31949,0.12,-0.20,-0.98
31968,0.14,-0.20,-0.98
31986,0.12,-0.20,-0.98
32005,0.10,-0.19,-0.99
32023,0.11,-0.19,-0.96
32042,0.12,-0.21,-0.94
32060,0.15,-0.21,-0.98
32079,0.15,-0.20,-0.95
32097,0.11,-0.19,-0.92
32116,0.09,-0.19,-0.92
32134,0.13,-0.18,-0.96
32153,0.18,-0.18,-0.99
32171,0.17,-0.18,-0.97
32190,0.14,-0.19,-0.95
32208,0.13,-0.19,-0.94
32227,0.13,-0.19,-0.94
32245,0.12,-0.19,-0.94
32264,0.15,-0.19,-0.94
32282,0.20,-0.20,-0.91
32301,0.17,-0.20,-0.92
32319,0.12,-0.19,-0.94
32338,0.13,-0.19,-0.93
32356,0.19,-0.20,-0.92
32375,0.20,-0.21,-0.93
32393,0.15,-0.21,-0.92
32412,0.13,-0.21,-0.91
32430,0.14,-0.21,-0.92
32449,0.14,-0.21,-0.92
32467,0.14,-0.21,-0.92
32486,0.14,-0.19,-0.91
32504,0.17,-0.18,-0.91
32523,0.21,-0.17,-0.94
32541,0.24,-0.16,-0.97
32560,0.25,-0.16,-0.97
32578,0.27,-0.15,-1.00
32597,0.35,-0.13,-1.07
32615,0.49,-0.12,-1.15
32634,0.63,-0.09,-1.23
32652,0.80,-0.07,-1.34
32671,1.00,-0.06,-1.42
32689,1.08,-0.06,-1.42
32708,1.02,-0.04,-1.35
32726,0.92,-0.01,-1.30
32745,0.86,-0.02,-1.25
32763,0.81,-0.02,-1.22
32782,0.72,-0.02,-1.17
32800,0.59,0.01,-1.12
32819,0.42,0.01,-1.11
32837,0.22,-0.03,-1.04
32856,-0.06,-0.05,-1.04
32874,-0.34,-0.07,-0.94
32893,-0.57,-0.10,-0.85
32911,-0.77,-0.14,-0.73
32930,-0.97,-0.16,-0.64
32948,-1.17,-0.17,-0.61
32967,-1.44,-0.18,-0.52
32985,-1.81,-0.17,-0.37
33004,-2.20,-0.16,-0.19
33022,-2.47,-0.15,-0.02
33041,-2.55,-0.13,0.08
33059,-2.40,-0.09,0.13
33078,-2.04,-0.06,0.14
33096,-1.64,-0.01,0.09
33115,-1.37,0.00,0.08
33133,-1.25,0.13,-0.03
33152,-1.03,0.25,-0.27
33170,-0.55,0.41,-0.62
33189,0.16,0.55,-0.99
33207,0.95,0.64,-1.28
33226,1.85,0.65,-1.57
33244,2.66,0.51,-1.85
33263,3.15,0.34,-2.02
33281,3.24,0.22,-2.04
33300,2.98,0.17,-1.97
33318,2.49,0.16,-1.88
33337,2.07,0.15,-1.82
33355,1.67,0.12,-1.54
33374,1.42,0.20,-1.21
33392,1.44,0.17,-1.32
33411,1.49,0.14,-1.48
33429,1.31,0.10,-1.35
33448,0.90,0.12,-1.18
33466,0.58,0.06,-0.86
33485,0.32,-0.07,-0.77
33503,-0.12,0.05,-1.03
33522,-0.43,0.00,-0.75
33540,-0.82,0.04,-0.56
33559,-1.30,0.02,-0.34
33577,-1.88,0.03,-0.39
33596,-2.41,0.04,-0.39
33614,-2.73,0.08,-0.48
33633,-2.72,0.06,-0.47
33651,-2.35,0.01,-0.36
33670,-1.84,-0.06,-0.19
33688,-1.49,-0.10,-0.13
33707,-1.36,-0.09,-0.16
33725,-1.27,-0.06,-0.17
33744,-1.12,-0.01,-0.20
33762,-0.80,0.04,-0.34
33781,-0.33,0.12,-0.57
33799,0.26,0.18,-0.87
33818,0.90,0.22,-1.14
33836,1.51,0.18,-1.41
33855,2.06,0.14,-1.69
33873,2.50,0.09,-1.95
33892,2.73,0.05,-2.08
33910,2.75,-0.04,-2.06
33929,2.59,-0.02,-1.92
33947,2.31,-0.16,-1.83
33966,1.86,-0.05,-1.45
33984,1.58,-0.05,-1.33
34003,1.39,-0.13,-1.28
34021,1.17,-0.01,-1.19
34040,0.96,-0.05,-1.12
34058,0.79,-0.08,-1.11
34077,0.48,-0.01,-1.19
34095,0.14,0.02,-0.97
34114,-0.24,0.01,-0.76
34132,-0.61,0.02,-0.69
34151,-1.00,0.04,-0.62
34169,-1.40,0.02,-0.51
34188,-1.93,0.02,-0.40
34206,-2.51,0.06,-0.36
34225,-2.96,0.11,-0.36
34243,-3.04,0.12,-0.27
34262,-2.66,0.12,-0.06
34280,-1.99,0.04,0.10
34299,-1.45,0.01,0.06
34317,-1.17,0.03,-0.08
34336,-0.90,0.06,-0.25
34354,-0.47,0.08,-0.42
34373,0.03,0.09,-0.62
34391,0.59,0.08,-0.82
34410,1.15,0.07,-1.07
34428,1.75,0.07,-1.42
34447,2.35,-0.03,-1.71
34465,2.74,-0.15,-1.89
34484,2.81,-0.23,-1.97
34502,2.54,-0.27,-1.92
34521,2.13,-0.22,-1.76
34539,1.77,-0.23,-1.57
34558,1.57,-0.22,-1.50
34576,1.43,-0.23,-1.41
34595,1.00,-0.12,-1.29
34613,0.69,-0.07,-1.10
34632,0.57,-0.14,-1.08
34650,0.30,0.01,-1.31
34669,0.01,-0.02,-1.19
34687,-0.36,-0.00,-0.92
34706,-0.69,-0.02,-0.77
34724,-0.97,-0.05,-0.69
34743,-1.21,-0.06,-0.60
34761,-1.48,-0.04,-0.45
34780,-1.79,-0.10,-0.33
34798,-2.05,-0.12,-0.28
34817,-2.12,-0.10,-0.29
34835,-1.92,-0.12,-0.23
34854,-1.57,-0.17,-0.14
34872,-1.24,-0.20,-0.07
34891,-1.09,-0.20,-0.07
34909,-1.08,-0.17,-0.11
34928,-1.10,-0.13,-0.16
34946,-1.02,-0.07,-0.26
34965,-0.77,-0.02,-0.44
34983,-0.38,0.06,-0.72
35002,0.15,0.10,-0.95
35020,0.64,0.06,-1.12
35039,1.06,0.02,-1.19
35057,1.27,-0.13,-1.18
35076,1.33,-0.11,-1.28
35094,1.26,-0.14,-1.35
35113,1.16,-0.14,-1.46
35131,1.11,-0.14,-1.48
35150,1.06,-0.21,-1.38
35168,0.97,-0.18,-1.13
35187,0.81,-0.20,-1.21
35205,0.78,-0.21,-1.34
35224,0.75,-0.20,-1.33
35242,0.63,-0.15,-1.27
35261,0.50,-0.13,-1.15
35279,0.43,-0.12,-1.10
35298,0.39,-0.12,-1.12
35316,0.34,-0.12,-1.12
35335,0.29,-0.11,-1.11
35353,0.27,-0.14,-1.08
35372,0.24,-0.16,-1.01
35390,0.17,-0.19,-0.95
35409,0.11,-0.20,-0.93
35427,0.08,-0.20,-0.93
35446,0.08,-0.21,-0.93
35464,0.08,-0.22,-0.92
35483,0.05,-0.23,-0.89
35501,-0.00,-0.22,-0.89
35520,-0.00,-0.22,-0.91
35538,0.03,-0.23,-0.91
35557,0.03,-0.23,-0.88
35575,0.01,-0.23,-0.88
35594,0.06,-0.24,-0.91
35612,0.11,-0.25,-0.91
35631,0.11,-0.25,-0.91
35649,0.11,-0.24,-0.90
35668,0.12,-0.24,-0.89
35686,0.14,-0.23,-0.90
35705,0.15,-0.22,-0.91
35723,0.17,-0.21,-0.93
35742,0.17,-0.21,-0.95
35760,0.15,-0.21,-0.94
35779,0.14,-0.19,-0.96
35797,0.19,-0.19,-0.99
35816,0.22,-0.20,-0.99
35834,0.18,-0.20,-0.96
35853,0.12,-0.19,-0.95
35871,0.13,-0.19,-0.95
35890,0.19,-0.20,-0.95
35908,0.21,-0.21,-0.95
35927,0.17,-0.20,-0.95
35945,0.12,-0.19,-0.97
35964,0.15,-0.20,-0.98
35982,0.18,-0.21,-0.97
36001,0.15,-0.20,-0.96
36019,0.13,-0.19,-0.97
36038,0.16,-0.20,-0.98
36056,0.16,-0.21,-0.96
36075,0.13,-0.21,-0.93
36093,0.11,-0.21,-0.93
36112,0.12,-0.21,-0.96
36130,0.12,-0.21,-0.94
36149,0.10,-0.20,-0.94
36167,0.12,-0.20,-0.95
36186,0.14,-0.21,-0.93
36204,0.12,-0.20,-0.93
36223,0.12,-0.20,-0.93
36241,0.15,-0.20,-0.92
36260,0.15,-0.20,-0.92
36278,0.15,-0.20,-0.92
36297,0.16,-0.20,-0.91
36315,0.15,-0.20,-0.91
36334,0.13,-0.19,-0.92
36352,0.14,-0.19,-0.92
36371,0.15,-0.18,-0.93
36389,0.17,-0.18,-0.95
36408,0.16,-0.18,-0.96
36426,0.16,-0.18,-0.96
36445,0.16,-0.19,-0.95
36463,0.16,-0.19,-0.94
36482,0.15,-0.18,-0.94
36500,0.16,-0.18,-0.95
36519,0.18,-0.18,-0.96
36537,0.19,-0.18,-0.96
36556,0.18,-0.18,-0.94
36574,0.15,-0.18,-0.94
36593,0.13,-0.18,-0.96
36611,0.13,-0.17,-0.96
36630,0.12,-0.17,-0.95
36648,0.10,-0.17,-0.95
36667,0.12,-0.16,-0.96
36685,0.14,-0.16,-0.96
36704,0.17,-0.16,-0.95
36722,0.20,-0.16,-0.96
36741,0.21,-0.16,-0.96
36759,0.20,-0.16,-0.94
36778,0.15,-0.14,-0.92
36796,0.15,-0.12,-0.95
36815,0.25,-0.11,-1.01
36833,0.37,-0.08,-1.07
36852,0.50,-0.04,-1.13
36870,0.69,-0.01,-1.24
36889,0.94,0.02,-1.36
36907,1.23,0.05,-1.49
36926,1.48,0.07,-1.60
36944,1.62,0.05,-1.56
36963,1.55,0.06,-1.48
36981,1.35,0.08,-1.40
37000,1.17,0.08,-1.29
37018,1.05,0.06,-1.20
37037,0.93,0.04,-1.14
37055,0.79,0.05,-1.17
37074,0.64,0.12,-1.05
37092,0.39,0.10,-0.93
37111,0.06,0.08,-0.76
37129,-0.34,0.04,-0.67
37148,-0.75,0.06,-0.45
37166,-1.14,0.08,-0.32
37185,-1.57,0.06,-0.26
37203,-2.10,0.06,-0.24
37222,-2.66,0.06,-0.20
37240,-3.10,0.10,-0.15
37259,-3.16,0.13,0.03
37277,-2.74,0.10,0.26
37296,-1.99,0.07,0.36
37314,-1.40,0.02,0.26
37333,-1.14,0.03,0.03
37351,-1.00,0.13,-0.24
37370,-0.73,0.25,-0.52
37388,-0.20,0.39,-0.84
37407,0.57,0.57,-1.16
37425,1.52,0.59,-1.57
37444,2.54,0.46,-2.02
37462,3.24,0.25,-2.28
37481,3.41,0.03,-2.22
37499,3.02,-0.06,-1.82
37518,2.23,0.10,-1.67
37536,1.85,0.08,-1.91
37555,1.87,0.13,-1.88
37573,2.02,0.12,-1.89
37592,2.06,0.05,-1.71
37610,1.82,0.10,-1.54
37629,1.36,0.16,-1.29
37647,0.91,0.06,-1.08
37666,0.49,0.08,-0.80
37684,0.17,0.02,-0.59
37703,-0.04,0.05,-0.72
37721,-0.24,0.11,-0.71
37740,-0.52,0.10,-0.61
37758,-0.92,0.16,-0.33
37777,-1.41,0.25,-0.14
37795,-2.02,0.29,-0.11
37814,-2.68,0.27,-0.13
37832,-3.24,0.26,-0.17
37851,-3.49,0.27,-0.12
37869,-3.23,0.31,0.04
37888,-2.44,0.27,0.16
37906,-1.58,0.18,0.00
37925,-1.10,0.14,-0.23
37943,-0.89,0.20,-0.42
37962,-0.62,0.28,-0.62
37980,-0.13,0.36,-0.80
37999,0.46,0.36,-0.93
38017,1.01,0.31,-1.16
38036,1.51,0.31,-1.36
38054,2.06,0.34,-1.72
38073,2.58,0.26,-2.12
38091,2.92,0.11,-2.37
38110,2.92,-0.01,-2.32
38128,2.56,-0.15,-2.13
38147,1.86,-0.04,-1.55
38165,1.18,-0.03,-1.21
38184,0.90,-0.00,-1.40
38202,1.08,-0.01,-1.70
38221,1.27,-0.03,-1.63
38239,1.30,-0.05,-1.40
38258,1.19,-0.05,-1.12
38276,0.86,-0.02,-0.96
38295,0.44,-0.01,-0.87
38313,0.04,-0.08,-0.81
38332,-0.34,-0.05,-0.68
38350,-0.67,0.04,-0.63
38369,-0.87,-0.03,-0.39
38387,-1.16,-0.04,-0.50
38406,-1.47,-0.05,-0.30
38424,-1.82,-0.03,-0.21
38443,-2.22,-0.01,-0.18
38461,-2.57,0.01,-0.18
38480,-2.75,0.10,-0.10
38498,-2.61,0.13,-0.02
38517,-2.07,0.14,-0.05
38535,-1.40,0.15,-0.19
38554,-0.88,0.14,-0.41
38572,-0.42,0.18,-0.63
38591,0.06,0.32,-0.75
38609,0.59,0.25,-0.89
38628,1.12,0.19,-1.17
38646,1.59,0.05,-1.31
38665,1.86,-0.06,-1.47
38683,1.94,-0.10,-1.57
38702,1.88,-0.21,-1.63
38720,1.71,-0.25,-1.44
38739,1.36,-0.21,-1.28
38757,1.06,-0.24,-1.28
38776,0.93,-0.23,-1.29
38794,0.84,-0.23,-1.26
38813,0.64,-0.20,-1.17
38831,0.41,-0.17,-1.08
38850,0.24,-0.14,-1.06
38868,0.15,-0.11,-1.09
38887,0.10,-0.10,-1.10
38905,0.06,-0.10,-1.08
38924,0.04,-0.11,-1.04
38942,-0.01,-0.14,-1.02
38961,-0.08,-0.17,-0.96
38979,-0.15,-0.20,-0.88
38998,-0.17,-0.23,-0.81
39016,-0.15,-0.26,-0.79
39035,-0.11,-0.27,-0.81
39053,-0.01,-0.28,-0.87
39072,0.09,-0.29,-0.88
39090,0.13,-0.27,-0.89
39109,0.18,-0.26,-0.96
39127,0.28,-0.28,-1.00
39146,0.29,-0.29,-0.98
39164,0.21,-0.28,-0.92
39183,0.09,-0.27,-0.90
39201,0.05,-0.26,-0.92
39220,0.10,-0.25,-0.95
39238,0.15,-0.24,-0.98
39257,0.18,-0.24,-0.95
39275,0.16,-0.23,-0.94
39294,0.14,-0.22,-0.95
39312,0.14,-0.21,-0.95
39331,0.17,-0.22,-0.93
39349,0.19,-0.22,-0.91
39368,0.18,-0.21,-0.91
39386,0.19,-0.21,-0.94
39405,0.22,-0.22,-0.96
39423,0.22,-0.23,-0.93
39442,0.19,-0.23,-0.90
39460,0.16,-0.25,-0.88
39479,0.13,-0.25,-0.89
39497,0.13,-0.24,-0.93
39516,0.15,-0.24,-0.95
39534,0.18,-0.23,-0.96
39553,0.19,-0.23,-0.95
39571,0.17,-0.23,-0.95
39590,0.14,-0.23,-0.95
39608,0.13,-0.23,-0.94
39627,0.12,-0.23,-0.93
39645,0.16,-0.24,-0.93
39664,0.17,-0.25,-0.92
39682,0.13,-0.24,-0.90
39701,0.10,-0.24,-0.91
39719,0.12,-0.24,-0.92
39738,0.15,-0.24,-0.93
39756,0.20,-0.24,-0.95
39775,0.22,-0.25,-0.95
39793,0.18,-0.25,-0.92
39812,0.15,-0.24,-0.91
39830,0.14,-0.24,-0.93
39849,0.12,-0.24,-0.92
39867,0.11,-0.24,-0.90
39886,0.12,-0.23,-0.90
39904,0.14,-0.23,-0.92
39923,0.15,-0.23,-0.93
39941,0.18,-0.22,-0.95
39960,0.20,-0.22,-0.96
39978,0.20,-0.22,-0.96
39997,0.21,-0.22,-0.95
40015,0.21,-0.23,-0.93
40034,0.17,-0.23,-0.92
40052,0.14,-0.23,-0.92
40071,0.14,-0.23,-0.93
40089,0.14,-0.23,-0.92
40108,0.13,-0.23,-0.91
40126,0.14,-0.23,-0.92
40145,0.16,-0.24,-0.93
40163,0.18,-0.23,-0.97
40182,0.21,-0.21,-1.00
40200,0.22,-0.20,-1.05
40219,0.20,-0.21,-1.00
40237,0.25,-0.22,-0.98
40256,0.26,-0.23,-0.94
40274,0.24,-0.22,-0.95
40293,0.20,-0.20,-0.98
40311,0.21,-0.20,-0.97
40330,0.26,-0.19,-1.00
40348,0.31,-0.18,-1.04
40367,0.34,-0.15,-1.12
40385,0.46,-0.12,-1.25
40404,0.66,-0.09,-1.39
40422,0.93,-0.06,-1.56
40441,1.23,-0.01,-1.72
40459,1.42,-0.04,-1.74
40478,1.37,-0.05,-1.62
40496,1.10,-0.06,-1.38
40515,0.85,-0.06,-1.21
40533,0.80,-0.18,-1.09
40552,0.58,-0.19,-1.00
40570,0.44,-0.23,-0.80
40589,0.25,-0.27,-0.68
40607,0.11,-0.39,-0.47
40626,-0.14,-0.32,-0.50
40644,-0.45,-0.27,-0.28
40663,-0.77,-0.21,-0.08
40681,-1.12,-0.18,-0.04
40700,-1.50,-0.11,-0.06
40718,-1.90,-0.07,0.03
40737,-2.36,-0.04,0.05
40755,-2.73,-0.03,-0.02
40774,-2.79,0.09,-0.06
40792,-2.45,0.15,0.03
40811,-1.87,0.16,0.12
40829,-1.39,0.16,0.01
40848,-1.10,0.23,-0.12
40866,-0.83,0.44,-0.37
40885,-0.28,0.59,-0.77
40903,0.58,0.72,-1.23
40922,1.53,0.74,-1.64
40940,2.48,0.64,-2.16
40959,3.16,0.42,-2.40
40977,3.43,0.23,-2.34
40996,3.33,0.18,-2.16
41014,2.98,0.05,-2.10
41033,2.35,0.14,-1.92
41051,1.79,0.15,-1.73
41070,1.49,0.11,-1.65
41088,1.45,0.05,-1.57
41107,1.37,-0.03,-1.39
41125,1.07,0.07,-1.10
41144,0.58,0.05,-1.00
41162,0.23,0.07,-0.81
41181,-0.04,0.05,-0.69
41199,-0.23,0.04,-0.76
41218,-0.48,0.05,-0.70
41236,-0.80,0.05,-0.60
41255,-1.17,0.09,-0.34
41273,-1.63,0.13,-0.13
41292,-2.22,0.17,-0.11
41310,-2.82,0.18,-0.18
41329,-3.24,0.23,-0.23
41347,-3.27,0.25,-0.17
41366,-2.82,0.26,0.02
41384,-2.03,0.20,0.07
41403,-1.38,0.15,-0.12
41421,-1.03,0.18,-0.31
41440,-0.78,0.25,-0.52
41458,-0.41,0.32,-0.70
41477,0.17,0.47,-0.90
41495,0.95,0.56,-1.19
41514,1.89,0.55,-1.70
41532,2.74,0.41,-2.12
41551,3.23,0.20,-2.33
41569,3.32,0.07,-2.32
41588,3.03,0.07,-2.20
41606,2.48,0.03,-1.99
41625,1.91,0.07,-1.64
41643,1.56,0.07,-1.55
41662,1.50,0.05,-1.51
41680,1.52,0.00,-1.45
41699,1.37,0.04,-1.36
41717,1.01,0.05,-1.04
41736,0.61,0.07,-0.81
41754,0.24,0.04,-0.68
41773,-0.06,0.12,-0.75
41791,-0.33,0.11,-0.59
41810,-0.66,0.06,-0.58
41828,-1.06,0.07,-0.35
41847,-1.55,0.14,-0.26
41865,-2.06,0.17,-0.29
41884,-2.51,0.22,-0.37
41902,-2.83,0.19,-0.35
41921,-2.94,0.20,-0.25
41939,-2.74,0.18,-0.10
41958,-2.19,0.16,0.02
41976,-1.60,0.10,-0.02
41995,-1.25,0.09,-0.09
42013,-1.10,0.13,-0.21
42032,-0.88,0.22,-0.37
42050,-0.45,0.31,-0.60
42069,0.16,0.34,-0.86
42087,0.77,0.38,-1.10
42106,1.34,0.29,-1.35
42124,1.77,0.26,-1.63
42143,2.11,0.34,-1.92
42161,2.48,0.39,-2.24
42180,2.90,0.25,-2.52
42198,3.15,0.17,-2.33
42217,2.97,0.04,-2.11
42235,2.42,0.03,-1.84
42254,1.71,0.16,-1.76
42272,1.14,0.17,-1.60
42291,0.91,0.12,-1.43
42309,0.92,0.13,-1.29
42328,1.04,0.08,-1.15
42346,0.99,0.10,-1.10
42365,0.68,0.13,-0.88
42383,0.15,0.07,-0.73
42402,-0.39,0.18,-0.50
42420,-0.88,0.21,-0.39
42439,-1.23,0.04,-0.21
42457,-1.52,0.15,-0.60
42476,-1.64,0.15,-0.54
42494,-1.65,0.11,-0.52
42513,-1.64,0.04,-0.44
42531,-1.73,-0.01,-0.24
42550,-1.93,-0.10,-0.02
42568,-2.17,-0.06,0.10
42587,-2.24,-0.06,0.10
42605,-2.00,-0.08,0.05
42624,-1.54,-0.13,-0.03
42642,-1.17,-0.15,-0.12
42661,-1.02,-0.14,-0.18
42679,-0.89,0.04,-0.33
42698,-0.44,0.29,-0.71
42716,0.32,0.35,-1.22
42735,1.06,0.31,-1.68
42753,1.72,0.12,-1.78
42772,2.07,-0.04,-1.88
42790,2.13,-0.09,-1.86
42809,1.98,-0.14,-1.88
42827,1.70,-0.17,-1.70
42846,1.33,-0.23,-1.64
42864,1.11,-0.26,-1.51
42883,0.90,-0.30,-1.35
42901,0.65,-0.28,-1.22
42920,0.47,-0.26,-1.12
42938,0.32,-0.23,-1.08
42957,0.22,-0.21,-1.02
42975,0.11,-0.21,-1.01
42994,0.02,-0.19,-1.01
43012,-0.01,-0.20,-1.03
43031,-0.02,-0.22,-0.96
43049,-0.08,-0.24,-0.85
43068,-0.19,-0.26,-0.77
43086,-0.31,-0.28,-0.72
43105,-0.39,-0.30,-0.69
43123,-0.44,-0.34,-0.66
43142,-0.52,-0.35,-0.69
43160,-0.47,-0.37,-0.65
43179,-0.37,-0.38,-0.65
43197,-0.25,-0.38,-0.71
43216,-0.11,-0.37,-0.79
43234,-0.01,-0.37,-0.85
43253,0.08,-0.36,-0.91
43271,0.15,-0.37,-0.93
43290,0.15,-0.37,-0.91
43308,0.15,-0.37,-0.91
43327,0.13,-0.38,-0.87
43345,0.08,-0.37,-0.88
43364,0.07,-0.35,-0.93
43382,0.11,-0.36,-0.94
43401,0.14,-0.35,-0.90
43419,0.19,-0.35,-0.92
43438,0.19,-0.32,-0.99
43456,0.15,-0.28,-1.03
43475,0.17,-0.30,-1.00
43493,0.17,-0.30,-0.95
43512,0.14,-0.29,-0.93
43530,0.11,-0.29,-0.94
43549,0.13,-0.29,-0.95
43567,0.16,-0.31,-0.94
43586,0.13,-0.30,-0.94
43604,0.10,-0.29,-0.95
43623,0.11,-0.31,-0.95
43641,0.13,-0.32,-0.95
43660,0.10,-0.32,-0.95
43678,0.07,-0.31,-0.95
43697,0.06,-0.34,-0.90
43715,0.07,-0.34,-0.92
43734,0.08,-0.32,-0.95
43752,0.08,-0.32,-0.96
43771,0.10,-0.33,-0.93
43789,0.10,-0.33,-0.91
43808,0.07,-0.33,-0.91
43826,0.04,-0.31,-0.93
43845,0.07,-0.34,-0.91
43863,0.07,-0.33,-0.90
43882,0.04,-0.31,-0.90
43900,0.02,-0.31,-0.89
43919,0.03,-0.31,-0.91
43937,0.07,-0.31,-0.92
43956,0.10,-0.32,-0.91
43974,0.10,-0.31,-0.90
43993,0.07,-0.30,-0.91
44011,0.08,-0.30,-0.91
44030,0.11,-0.31,-0.90
44048,0.10,-0.31,-0.90
44067,0.08,-0.29,-0.92
44085,0.10,-0.31,-0.91
44104,0.10,-0.31,-0.91
44122,0.10,-0.30,-0.92
44141,0.11,-0.30,-0.92
44159,0.11,-0.30,-0.93
44178,0.12,-0.29,-0.95
44196,0.16,-0.30,-0.96
44215,0.14,-0.30,-0.94
44233,0.08,-0.30,-0.92
44252,0.06,-0.30,-0.91
44270,0.08,-0.30,-0.92
44289,0.10,-0.30,-0.93
44307,0.08,-0.30,-0.92
44326,0.10,-0.31,-0.90
44344,0.11,-0.31,-0.91
44363,0.09,-0.30,-0.92
44381,0.06,-0.30,-0.92
44400,0.05,-0.29,-0.94
44418,0.10,-0.27,-1.00
44437,0.23,-0.24,-1.10
44455,0.44,-0.22,-1.27
44474,0.62,-0.18,-1.47
44492,0.79,-0.17,-1.62
44511,0.91,-0.17,-1.67
44529,0.87,-0.17,-1.60
44548,0.78,-0.15,-1.61
44566,0.77,-0.16,-1.51
44585,0.84,-0.20,-1.36
44603,0.87,-0.23,-1.26
44622,0.77,-0.25,-1.04
44640,0.46,-0.27,-0.82
44659,0.12,-0.29,-0.69
44677,-0.08,-0.36,-0.59
44696,-0.28,-0.31,-0.63
44714,-0.45,-0.33,-0.41
44733,-0.67,-0.33,-0.21
44751,-0.90,-0.30,-0.16
44770,-1.11,-0.26,-0.16
44788,-1.33,-0.23,-0.10
44807,-1.56,-0.21,-0.03
44825,-1.86,-0.19,0.00
44844,-2.14,-0.18,-0.02
44862,-2.26,-0.11,-0.03
44881,-2.16,-0.07,0.04
44899,-1.81,-0.05,0.06
44918,-1.35,-0.05,-0.01
44936,-1.04,-0.05,-0.04
44955,-0.95,0.07,-0.13
44973,-0.74,0.28,-0.43
44992,-0.19,0.52,-0.91
45010,0.65,0.74,-1.46
45029,1.64,0.78,-2.03
45047,2.63,0.60,-2.53
45066,3.26,0.31,-2.72
45084,3.43,0.14,-2.46
45103,3.11,0.02,-2.17
45121,2.34,0.08,-1.68
45140,1.60,0.05,-1.61
45158,1.38,0.02,-1.73
45177,1.46,-0.03,-1.64
45195,1.49,-0.04,-1.38
45214,1.42,0.01,-1.15
45232,1.22,-0.01,-1.14
45251,0.82,0.02,-1.04
45269,0.35,0.02,-0.84
45288,-0.09,0.12,-0.71
45306,-0.37,0.09,-0.39
45325,-0.61,0.04,-0.44
45343,-0.89,0.11,-0.34
45362,-1.18,0.08,-0.25
45380,-1.57,0.17,-0.45
45399,-1.95,0.18,-0.51
45417,-2.27,0.21,-0.43
45436,-2.52,0.20,-0.27
45454,-2.67,0.17,-0.12
45473,-2.59,0.18,0.03
45491,-2.24,0.13,0.18
45510,-1.70,0.06,0.13
45528,-1.29,-0.03,0.05
45547,-1.13,-0.00,-0.12
45565,-1.04,0.14,-0.31
45584,-0.65,0.35,-0.85
45602,0.09,0.49,-1.36
45621,1.09,0.56,-1.89
45639,2.12,0.51,-2.35
45658,2.83,0.28,-2.87
45676,3.19,0.03,-2.99
45695,3.18,-0.25,-2.88
45713,2.66,-0.16,-2.39
45732,1.79,-0.06,-1.77
45750,1.20,-0.09,-1.64
45769,1.06,-0.14,-1.67
45787,1.00,-0.16,-1.52
45806,0.82,-0.21,-1.16
45824,0.51,-0.21,-1.00
45843,0.19,-0.17,-0.91
45861,-0.10,-0.10,-0.89
45880,-0.30,-0.09,-0.76
45898,-0.44,0.00,-0.72
45917,-0.59,-0.00,-0.45
45935,-0.87,-0.09,-0.40
45954,-1.28,-0.04,-0.19
45972,-1.75,0.03,-0.19
45991,-2.16,0.06,-0.30
46009,-2.43,0.08,-0.37
46028,-2.47,0.11,-0.33
46046,-2.30,0.11,-0.13
46065,-1.93,0.04,0.03
46083,-1.56,0.05,0.01
46102,-1.29,0.04,0.01
46120,-1.08,0.15,-0.07
46139,-0.70,0.28,-0.31
46157,-0.04,0.42,-0.82
46176,0.71,0.49,-1.23
46194,1.58,0.36,-1.61
46213,2.35,0.21,-1.92
46231,2.78,0.02,-2.21
46250,2.92,-0.22,-2.31
46268,2.71,-0.13,-2.21
46287,2.22,-0.07,-1.96
46305,1.78,-0.11,-1.88
46324,1.57,-0.12,-1.76
46342,1.40,-0.13,-1.57
46361,1.22,-0.14,-1.39
46379,0.99,-0.13,-1.23
46398,0.69,-0.09,-1.11
46416,0.41,-0.06,-1.05
46435,0.18,-0.09,-0.99
46453,-0.01,-0.07,-0.84
46472,-0.07,-0.06,-0.72
46490,-0.10,-0.05,-0.79
46509,-0.16,-0.20,-0.58
46527,-0.45,-0.14,-0.75
46546,-0.77,-0.15,-0.51
46564,-1.10,-0.17,-0.37
46583,-1.44,-0.13,-0.35
46601,-1.70,-0.16,-0.35
46620,-1.81,-0.19,-0.32
46638,-1.77,-0.21,-0.27
46657,-1.62,-0.25,-0.19
46675,-1.47,-0.26,-0.12
46694,-1.40,-0.24,-0.11
46712,-1.40,-0.22,-0.17
46731,-1.39,-0.17,-0.21
46749,-1.30,-0.13,-0.20
46768,-1.15,-0.07,-0.20
46786,-0.95,0.03,-0.26
46805,-0.66,0.32,-0.39
46823,-0.21,0.47,-0.64
46842,0.49,0.64,-1.25
46860,1.42,0.63,-1.89
46879,2.39,0.55,-2.40
46897,2.94,0.07,-2.73
46916,2.98,-0.12,-2.08
46934,2.21,-0.25,-1.26
46953,1.11,-0.18,-0.95
46971,0.37,-0.12,-1.12
46990,0.10,-0.11,-1.40
47008,0.25,-0.15,-1.41
47027,0.59,-0.25,-1.19
47045,0.74,-0.28,-1.00
47064,0.57,-0.23,-1.00
47082,0.29,-0.15,-1.11
47101,0.09,-0.12,-1.14
47119,0.03,-0.12,-1.10
47138,0.04,-0.14,-1.02
47156,0.04,-0.17,-0.97
47175,-0.01,-0.18,-0.97
47193,-0.07,-0.19,-0.95
47212,-0.16,-0.22,-0.91
47230,-0.21,-0.25,-0.84
47249,-0.24,-0.27,-0.81
47267,-0.23,-0.28,-0.80
47286,-0.17,-0.28,-0.82
47304,-0.07,-0.29,-0.86
47323,0.02,-0.29,-0.89
47341,0.07,-0.30,-0.89
47360,0.09,-0.29,-0.90
47378,0.12,-0.29,-0.92
47397,0.14,-0.30,-0.94
47415,0.13,-0.29,-0.92
47434,0.12,-0.29,-0.91
47452,0.11,-0.28,-0.93
47471,0.09,-0.28,-0.96
47489,0.07,-0.27,-0.94
47508,0.05,-0.26,-0.93
47526,0.07,-0.25,-0.94
47545,0.12,-0.25,-0.97
47563,0.14,-0.24,-0.98
47582,0.14,-0.24,-0.98
47600,0.12,-0.24,-0.98
47619,0.09,-0.24,-0.96
47637,0.05,-0.24,-0.94
47656,0.04,-0.24,-0.94
47674,0.07,-0.24,-0.95
47693,0.10,-0.25,-0.96
47711,0.10,-0.26,-0.95
47730,0.07,-0.26,-0.92
47748,0.06,-0.26,-0.91
47767,0.05,-0.27,-0.91
47785,0.05,-0.25,-0.94
47804,0.08,-0.25,-0.94
47822,0.07,-0.26,-0.94
47841,0.04,-0.26,-0.92
47859,0.03,-0.26,-0.93
47878,0.04,-0.26,-0.92
47896,0.06,-0.27,-0.91
47915,0.06,-0.26,-0.91
47933,0.06,-0.26,-0.93
47952,0.05,-0.26,-0.93
47970,0.04,-0.25,-0.92
47989,0.05,-0.25,-0.93
48007,0.07,-0.25,-0.95
48026,0.09,-0.25,-0.95
48044,0.07,-0.24,-0.94
48063,0.07,-0.24,-0.93
48081,0.08,-0.24,-0.93
48100,0.09,-0.24,-0.93
48118,0.11,-0.21,-0.96
48137,0.12,-0.22,-0.96
48155,0.11,-0.24,-0.94
48174,0.12,-0.23,-0.95
48192,0.13,-0.22,-0.98
48211,0.13,-0.23,-0.96
48229,0.12,-0.20,-0.96
48248,0.12,-0.22,-0.95
48266,0.11,-0.23,-0.95
48285,0.10,-0.24,-0.95
48303,0.08,-0.24,-0.94
48322,0.08,-0.23,-0.93
48340,0.06,-0.22,-0.94
48359,0.05,-0.22,-0.95
48377,0.07,-0.22,-0.97
48396,0.09,-0.23,-0.95
48414,0.11,-0.22,-0.95
48433,0.10,-0.20,-0.98
48451,0.09,-0.22,-0.96
48470,0.08,-0.22,-0.96
48488,0.09,-0.22,-0.94
48507,0.08,-0.21,-0.94
48525,0.07,-0.21,-0.94
48544,0.07,-0.20,-0.96
48562,0.06,-0.18,-1.00
48581,0.09,-0.16,-1.05
48599,0.18,-0.09,-1.17
48618,0.37,-0.03,-1.33
48636,0.66,0.00,-1.62
48655,0.99,0.05,-1.92
48673,1.27,0.08,-2.01
48692,1.44,0.07,-1.95
48710,1.38,0.09,-1.84
48729,1.13,0.10,-1.56
48747,0.84,0.09,-1.33
48766,0.64,0.06,-1.26
48784,0.53,0.08,-1.27
48803,0.28,0.06,-1.09
48821,0.12,-0.06,-0.76
48840,-0.04,-0.03,-0.54
48858,-0.12,-0.11,-0.19
48877,-0.34,-0.19,-0.17
48895,-0.69,-0.15,0.11
48914,-1.12,-0.09,0.29
48932,-1.59,-0.04,0.36
48951,-2.06,-0.04,0.25
48969,-2.54,-0.04,0.17
48988,-2.92,-0.00,0.17
49006,-3.06,0.06,0.27
49025,-2.86,0.14,0.38
49043,-2.27,0.17,0.46
49062,-1.60,0.14,0.34
49080,-1.24,0.17,0.18
49099,-1.05,0.32,-0.02
49117,-0.65,0.60,-0.42
49136,0.14,0.84,-1.09
49154,1.21,0.96,-1.94
49173,2.32,0.82,-2.63
49191,3.13,0.53,-3.11
49210,3.48,0.22,-3.36
49228,3.24,0.07,-3.02
49247,2.40,0.05,-2.35
49265,1.54,0.12,-1.84
49284,1.10,0.13,-1.76
49302,1.16,0.07,-1.80
49321,1.41,0.01,-1.71
49339,1.33,0.00,-1.54
49358,0.97,0.09,-1.40
49376,0.65,0.09,-1.31
49395,0.51,0.01,-1.10
49413,0.32,-0.04,-1.03
49432,0.02,-0.01,-0.71
49450,-0.30,0.04,-0.45
49469,-0.57,0.00,-0.27
49487,-0.79,-0.25,-0.13
49506,-1.15,0.01,-0.43
49524,-1.54,0.01,-0.24
49543,-1.97,0.04,-0.08
49561,-2.29,0.03,-0.03
49580,-2.50,0.05,-0.06
49598,-2.48,0.03,0.02
49617,-2.22,0.03,0.14
49635,-1.83,-0.03,0.17
49654,-1.54,-0.07,0.06
49672,-1.44,-0.07,0.01
49691,-1.40,0.00,-0.02
49709,-1.19,0.14,-0.14
49728,-0.66,0.46,-0.51
49746,0.14,0.57,-0.99
49765,1.19,0.74,-1.72
49783,2.30,0.71,-2.40
49802,3.09,0.49,-2.94
49820,3.53,0.23,-3.26
49839,3.35,-0.16,-2.96
49857,2.40,-0.04,-2.01
49876,1.29,0.01,-1.40
49894,0.75,-0.02,-1.48
49913,0.79,-0.06,-1.75
49931,1.03,-0.09,-1.77
49950,1.14,-0.12,-1.45
49968,0.98,-0.11,-1.17
49987,0.75,-0.17,-0.98
50005,0.43,-0.12,-1.14
50024,0.16,-0.08,-0.94
50042,-0.09,-0.08,-0.70
50061,-0.30,-0.07,-0.52
50079,-0.44,-0.32,-0.16
50098,-0.71,-0.11,-0.51
50116,-1.03,-0.10,-0.28
50135,-1.39,-0.07,-0.12
50153,-1.77,-0.02,-0.20
50172,-2.18,0.01,-0.24
50190,-2.46,0.04,-0.23
50209,-2.53,0.03,-0.14
50227,-2.28,0.06,-0.02
50246,-1.78,0.02,0.04
50264,-1.33,-0.03,-0.00
50283,-1.08,-0.04,-0.06
50301,-0.91,0.01,-0.19
50320,-0.66,0.08,-0.41
50338,-0.19,0.21,-0.74
50357,0.44,0.32,-1.12
50375,1.25,0.36,-1.57
50394,2.16,0.32,-2.09
50412,2.89,0.23,-2.42
50431,3.32,0.01,-2.50
50449,3.26,-0.21,-2.47
50468,2.57,-0.18,-1.89
50486,1.62,-0.11,-1.60
50505,1.19,-0.10,-1.64
50523,1.16,-0.14,-1.77
50542,1.23,-0.16,-1.59
50560,1.17,-0.13,-1.33
50579,1.00,-0.08,-1.21
50597,0.83,0.01,-1.24
50616,0.61,0.06,-1.21
50634,0.35,-0.04,-1.01
50653,0.04,-0.00,-0.78
50671,-0.20,-0.04,-0.58
50690,-0.34,-0.30,-0.47
50708,-0.57,-0.06,-0.72
50727,-0.82,-0.05,-0.48
50745,-1.15,-0.03,-0.20
50764,-1.54,0.03,-0.09
50782,-1.94,0.07,-0.10
50801,-2.32,0.10,-0.20
50819,-2.61,0.15,-0.16
50838,-2.70,0.15,-0.09
50856,-2.49,0.15,0.06
50875,-2.00,0.07,0.14
50893,-1.53,0.03,0.03
50912,-1.28,0.04,-0.05
50930,-1.13,0.13,-0.15
50949,-0.82,0.27,-0.37
50967,-0.25,0.40,-0.64
50986,0.46,0.48,-0.98
51004,1.16,0.45,-1.38
51023,1.89,0.40,-1.77
51041,2.35,0.26,-2.24
51060,2.57,0.05,-2.38
51078,2.49,-0.21,-2.27
51097,1.93,-0.22,-1.80
51115,1.09,-0.14,-1.28
51134,0.55,-0.14,-1.27
51152,0.48,-0.15,-1.44
51171,0.66,-0.20,-1.54
51189,0.74,-0.23,-1.40
51208,0.58,-0.21,-1.19
51226,0.35,-0.17,-1.07
51245,0.17,-0.13,-1.05
51263,0.06,-0.13,-1.06
51282,-0.01,-0.15,-1.05
51300,-0.08,-0.19,-0.99
51319,-0.14,-0.24,-0.89
51337,-0.20,-0.26,-0.76
51356,-0.26,-0.31,-0.68
51374,-0.30,-0.33,-0.65
51393,-0.29,-0.35,-0.66
51411,-0.25,-0.36,-0.67
51430,-0.19,-0.36,-0.68
51448,-0.08,-0.33,-0.76
51467,0.08,-0.32,-0.86
51485,0.23,-0.33,-0.93
51504,0.26,-0.34,-0.93
51522,0.20,-0.33,-0.91
51541,0.15,-0.33,-0.90
51559,0.13,-0.34,-0.92
51578,0.14,-0.34,-0.93
51596,0.13,-0.34,-0.90
51615,0.12,-0.34,-0.84
51633,0.08,-0.33,-0.90
51652,0.07,-0.30,-0.95
51670,0.14,-0.28,-0.98
51689,0.23,-0.27,-1.00
51707,0.27,-0.27,-1.01
51726,0.21,-0.26,-1.01
51744,0.12,-0.26,-1.02
51763,0.09,-0.26,-0.97
51781,0.08,-0.27,-0.94
51800,0.10,-0.27,-0.94
51818,0.12,-0.29,-0.92
51837,0.10,-0.29,-0.92
51855,0.08,-0.28,-0.94
51874,0.09,-0.28,-0.96
51892,0.14,-0.29,-0.95
51911,0.12,-0.28,-0.95
51929,0.07,-0.27,-0.96
51948,0.07,-0.27,-0.97
51966,0.11,-0.29,-0.94
51985,0.10,-0.29,-0.94
52003,0.07,-0.28,-0.95
52022,0.08,-0.29,-0.93
52040,0.08,-0.30,-0.90
52059,0.08,-0.30,-0.91
52077,0.10,-0.31,-0.90
52096,0.11,-0.30,-0.91
52114,0.10,-0.29,-0.92
52133,0.10,-0.29,-0.91
52151,0.10,-0.30,-0.91
52170,0.09,-0.29,-0.92
52188,0.08,-0.28,-0.92
52207,0.09,-0.28,-0.91
52225,0.09,-0.28,-0.90
52244,0.07,-0.27,-0.91
52262,0.08,-0.28,-0.92
52281,0.09,-0.26,-0.95
52299,0.11,-0.26,-0.95
52318,0.11,-0.26,-0.94
52336,0.11,-0.27,-0.93
52355,0.11,-0.26,-0.93
52373,0.11,-0.26,-0.95
52392,0.12,-0.26,-0.95
52410,0.13,-0.26,-0.94
52429,0.15,-0.26,-0.94
52447,0.16,-0.27,-0.95
52466,0.15,-0.27,-0.94
52484,0.13,-0.27,-0.93
52503,0.14,-0.27,-0.91
52521,0.14,-0.27,-0.92
52540,0.13,-0.27,-0.92
52558,0.15,-0.27,-0.93
52577,0.17,-0.27,-0.93
52595,0.16,-0.26,-0.92
52614,0.14,-0.25,-0.93
52632,0.13,-0.26,-0.93
52651,0.15,-0.27,-0.92
52669,0.15,-0.25,-0.92
52688,0.16,-0.25,-0.93
52706,0.19,-0.25,-0.96
52725,0.22,-0.24,-0.97
52743,0.21,-0.23,-0.94
52762,0.19,-0.21,-0.94
52780,0.20,-0.19,-0.99
52799,0.28,-0.18,-1.07
52817,0.42,-0.17,-1.19
52836,0.59,-0.16,-1.29
52854,0.75,-0.15,-1.39
52873,0.93,-0.12,-1.55
52891,1.14,-0.11,-1.65
52910,1.27,-0.12,-1.63
52928,1.24,-0.14,-1.54
52947,1.13,-0.14,-1.44
52965,0.99,-0.09,-1.40
52984,0.89,-0.10,-1.36
53002,0.73,-0.05,-1.24
53021,0.43,-0.05,-1.01
53039,0.14,-0.19,-0.87
53058,-0.12,-0.15,-0.72
53076,-0.34,-0.12,-0.60
53095,-0.43,-0.30,-0.29
53113,-0.66,-0.19,-0.58
53132,-0.95,-0.13,-0.32
53150,-1.29,-0.09,-0.10
53169,-1.70,0.00,-0.04
53187,-2.10,0.05,-0.06
53206,-2.43,0.10,-0.07
53224,-2.73,0.12,-0.13
53243,-2.88,0.21,-0.13
53261,-2.68,0.28,-0.05
53280,-2.15,0.27,0.17
53298,-1.50,0.21,0.20
53317,-1.11,0.17,0.14
53335,-0.94,0.24,-0.00
53354,-0.76,0.37,-0.36
53372,-0.31,0.58,-0.80
53391,0.46,0.82,-1.27
53409,1.51,0.90,-1.93
53428,2.60,0.86,-2.37
53446,3.42,0.52,-2.88
53465,3.82,0.08,-3.02
53483,3.49,-0.07,-2.66
53502,2.54,0.03,-2.09
53520,1.63,0.08,-1.93
53539,1.21,0.09,-1.77
53557,1.15,-0.01,-1.86
53576,1.41,-0.14,-1.77
53594,1.37,-0.14,-1.49
53613,1.01,-0.04,-1.34
53631,0.59,0.02,-1.19
53650,0.31,-0.06,-1.11
53668,0.08,-0.07,-0.92
53687,-0.04,-0.19,-0.68
53705,-0.20,-0.09,-0.64
53724,-0.41,-0.07,-0.40
53742,-0.76,-0.00,-0.23
53761,-1.20,0.03,-0.05
53779,-1.73,0.07,-0.06
53798,-2.37,0.12,-0.15
53816,-2.94,0.22,-0.24
53835,-3.22,0.29,-0.29
53853,-3.00,0.29,-0.08
53872,-2.33,0.24,0.17
53890,-1.57,0.16,0.21
53909,-1.13,0.09,0.11
53927,-1.02,0.09,-0.04
53946,-1.02,0.17,-0.16
53964,-0.79,0.33,-0.44
53983,-0.13,0.50,-0.84
54001,0.78,0.59,-1.20
54020,1.78,0.63,-1.75
54038,2.70,0.55,-2.23
54057,3.33,0.34,-2.65
54075,3.65,0.08,-2.74
54094,3.43,-0.10,-2.43
54112,2.55,-0.07,-1.83
54131,1.64,-0.08,-1.67
54149,1.17,0.00,-1.60
54168,1.08,-0.02,-1.58
54186,1.26,-0.13,-1.57
54205,1.32,-0.16,-1.41
54223,1.04,-0.11,-1.08
54242,0.54,-0.10,-1.06
54260,0.20,-0.03,-0.90
54279,-0.04,0.00,-0.84
54297,-0.15,-0.09,-0.61
54316,-0.33,-0.11,-0.66
54334,-0.59,-0.10,-0.42
54353,-0.95,-0.09,-0.22
54371,-1.40,-0.07,-0.14
54390,-1.85,-0.02,-0.17
54408,-2.24,0.05,-0.33
54427,-2.57,0.07,-0.43
54445,-2.66,0.10,-0.39
54464,-2.37,0.12,-0.21
54482,-1.74,0.06,-0.04
54501,-1.13,-0.03,-0.04
54519,-0.75,-0.08,-0.12
54538,-0.59,-0.10,-0.19
54556,-0.50,-0.06,-0.26
54575,-0.28,0.08,-0.51
54593,0.22,0.18,-0.87
54612,0.81,0.28,-1.26
54630,1.48,0.35,-1.64
54649,2.13,0.40,-2.11
54667,2.60,0.38,-2.43
54686,2.98,0.20,-2.78
54704,3.09,0.19,-2.61
54723,2.81,0.12,-2.10
54741,2.22,0.09,-1.72
54760,1.67,0.11,-1.64
54778,1.28,0.13,-1.76
54797,1.06,0.14,-1.67
54815,0.91,0.13,-1.47
54834,0.80,0.09,-1.21
54852,0.73,0.06,-0.99
54871,0.45,0.06,-0.95
54889,0.18,0.03,-0.76
54908,-0.15,0.07,-0.66
54926,-0.34,-0.12,-0.41
54945,-0.57,0.02,-0.72
54963,-0.79,0.01,-0.50
54982,-1.02,-0.02,-0.33
55000,-1.26,-0.01,-0.23
55019,-1.51,-0.02,-0.30
55037,-1.80,0.04,-0.31
55056,-2.08,0.01,-0.22
55074,-2.32,-0.00,-0.17
55093,-2.42,0.01,-0.15
55111,-2.32,0.02,-0.02
55130,-2.00,-0.04,0.09
55148,-1.56,-0.08,-0.01
55167,-1.22,-0.08,-0.10
55185,-1.03,-0.04,-0.14
55204,-0.81,0.08,-0.28
55222,-0.43,0.23,-0.55
55241,0.16,0.38,-0.89
55259,0.82,0.41,-1.27
55278,1.47,0.35,-1.52
55296,1.94,0.16,-1.73
55315,2.15,0.04,-1.88
55333,2.19,-0.09,-1.85
55352,2.01,-0.22,-1.80
55370,1.56,-0.16,-1.60
55389,1.01,-0.12,-1.31
55407,0.62,-0.18,-1.27
55426,0.53,-0.21,-1.31
55444,0.54,-0.22,-1.28
55463,0.48,-0.21,-1.15
55481,0.35,-0.19,-1.07
55500,0.23,-0.14,-1.06
55518,0.19,-0.12,-1.12
55537,0.22,-0.11,-1.19
55555,0.27,-0.12,-1.19
55574,0.27,-0.16,-1.09
55592,0.20,-0.20,-0.95
55611,0.11,-0.22,-0.84
55629,0.03,-0.24,-0.80
55648,-0.02,-0.27,-0.79
55666,0.00,-0.27,-0.80
55685,0.06,-0.30,-0.79
55703,0.11,-0.32,-0.77
55722,0.16,-0.32,-0.77
55740,0.18,-0.32,-0.81
55759,0.19,-0.31,-0.86
55777,0.19,-0.31,-0.86
55796,0.18,-0.30,-0.85
55814,0.22,-0.29,-0.87
55833,0.24,-0.29,-0.88
55851,0.23,-0.28,-0.90
55870,0.21,-0.27,-0.90
55888,0.22,-0.26,-0.91
55907,0.25,-0.25,-0.93
55925,0.24,-0.24,-0.94
55944,0.22,-0.25,-0.96
55962,0.22,-0.24,-0.95
55981,0.21,-0.23,-0.94
55999,0.20,-0.22,-0.93
56018,0.21,-0.22,-0.92
56036,0.22,-0.22,-0.93
56055,0.21,-0.21,-0.94
56073,0.23,-0.21,-0.98
56092,0.27,-0.23,-0.97
56110,0.27,-0.23,-0.97
56129,0.24,-0.23,-0.95
56147,0.23,-0.23,-0.95
56166,0.25,-0.24,-0.95
56184,0.25,-0.24,-0.94
56203,0.22,-0.23,-0.93
56221,0.21,-0.23,-0.95
56240,0.20,-0.22,-0.96
56258,0.21,-0.22,-0.97
56277,0.22,-0.22,-0.96
56295,0.22,-0.23,-0.95
56314,0.20,-0.22,-0.94
56332,0.19,-0.23,-0.92
56351,0.20,-0.25,-0.91
56369,0.22,-0.25,-0.89
56388,0.20,-0.25,-0.90
56406,0.18,-0.23,-0.90
56425,0.17,-0.23,-0.90
56443,0.17,-0.23,-0.91
56462,0.18,-0.23,-0.91
56480,0.19,-0.23,-0.92
56499,0.21,-0.23,-0.91
56517,0.22,-0.23,-0.91
56536,0.21,-0.23,-0.90
56554,0.20,-0.23,-0.89
56573,0.18,-0.23,-0.89
56591,0.18,-0.22,-0.89
56610,0.17,-0.21,-0.91
56628,0.16,-0.21,-0.92
56647,0.16,-0.21,-0.90
56665,0.15,-0.19,-0.90
56684,0.19,-0.21,-0.92
56702,0.19,-0.21,-0.91
56721,0.18,-0.20,-0.89
56739,0.16,-0.22,-0.85
56758,0.13,-0.21,-0.84
56776,0.12,-0.22,-0.79
56795,0.10,-0.22,-0.77
56813,0.08,-0.20,-0.77
56832,0.11,-0.15,-0.83
56850,0.23,-0.10,-0.95
56869,0.40,-0.04,-1.12
56887,0.61,0.01,-1.28
56906,0.84,0.03,-1.43
56924,1.05,0.05,-1.50
56943,1.17,0.06,-1.50
56961,1.25,0.06,-1.50
56980,1.33,0.07,-1.51
56998,1.39,0.09,-1.55
57017,1.42,0.12,-1.61
57035,1.30,0.12,-1.49
57054,1.07,0.12,-1.31
57072,0.87,0.10,-1.28
57091,0.73,0.06,-1.24
57109,0.58,0.04,-1.16
57128,0.40,-0.02,-0.86
57146,0.16,-0.17,-0.70
57165,-0.11,-0.11,-0.63
57183,-0.22,-0.29,-0.36
57202,-0.42,-0.24,-0.56
57220,-0.66,-0.22,-0.33
57239,-0.95,-0.15,-0.12
57257,-1.30,-0.13,-0.04
57276,-1.71,-0.07,-0.07
57294,-2.13,-0.03,-0.12
57313,-2.47,-0.02,-0.18
57331,-2.66,0.03,-0.12
57350,-2.62,0.09,-0.05
57368,-2.31,0.17,0.13
57387,-1.81,0.13,0.20
57405,-1.37,0.13,0.08
57424,-1.09,0.24,-0.08
57442,-0.83,0.38,-0.23
57461,-0.42,0.58,-0.51
57479,0.26,0.76,-0.93
57498,1.13,0.91,-1.43
57516,2.18,0.95,-2.00
57535,3.02,0.85,-2.54
57553,3.62,0.58,-2.80
57572,3.80,0.21,-2.75
57590,3.29,0.24,-2.18
57609,2.26,0.31,-1.67
57627,1.58,0.33,-1.75
57646,1.47,0.25,-1.98
57664,1.55,0.15,-1.88
57683,1.51,0.10,-1.45
57701,1.29,0.06,-1.14
57720,1.09,0.09,-1.10
57738,0.81,0.05,-1.16
57757,0.56,0.08,-1.01
57775,0.32,0.17,-0.90
57794,0.16,0.04,-0.54
57812,-0.05,-0.02,-0.61
57831,-0.32,-0.05,-0.41
57849,-0.62,-0.04,-0.27
57868,-0.93,-0.03,-0.22
57886,-1.26,-0.03,-0.23
57905,-1.57,-0.02,-0.20
57923,-1.94,-0.01,-0.20
57942,-2.33,-0.00,-0.25
57960,-2.63,0.04,-0.23
57979,-2.72,0.08,-0.13
57997,-2.53,0.10,0.00
58016,-2.03,0.08,0.14
58034,-1.45,0.00,0.12
58053,-1.11,-0.00,0.05
58071,-0.98,0.05,-0.11
58090,-0.86,0.18,-0.34
58108,-0.54,0.41,-0.60
58127,0.10,0.65,-0.91
58145,0.98,0.91,-1.45
58164,2.06,1.01,-2.07
58182,2.99,1.05,-2.59
58201,3.75,0.78,-3.25
58219,3.99,0.41,-3.14
58238,3.59,0.28,-2.55
58256,2.59,0.34,-1.84
58275,1.63,0.42,-1.49
58293,1.13,0.35,-1.63
58312,1.04,0.23,-1.74
58330,1.07,0.11,-1.62
58349,0.98,0.04,-1.25
58367,0.75,0.03,-0.98
58386,0.44,0.00,-0.86
58404,0.23,0.01,-0.89
58423,0.09,-0.05,-0.77
58441,-0.03,-0.14,-0.72
58460,-0.21,-0.17,-0.49
58478,-0.47,-0.18,-0.32
58497,-0.82,-0.17,-0.22
58515,-1.23,-0.14,-0.15
58534,-1.68,-0.13,-0.11
58552,-2.17,-0.05,-0.15
58571,-2.56,0.01,-0.22
58589,-2.72,0.07,-0.19
58608,-2.54,0.07,-0.09
58626,-1.99,0.01,0.12
58645,-1.29,-0.02,0.10
58663,-0.83,-0.12,0.09
58682,-0.72,-0.11,0.02
58700,-0.72,0.03,-0.20
58719,-0.51,0.19,-0.45
58737,-0.06,0.34,-0.76
58756,0.55,0.49,-1.10
58774,1.21,0.56,-1.52
58793,1.81,0.54,-1.80
58811,2.21,0.55,-2.09
58830,2.51,0.60,-2.28
58848,2.77,0.52,-2.48
58867,2.88,0.54,-2.32
58885,2.76,0.51,-2.19
58904,2.51,0.41,-2.06
58922,2.11,0.43,-1.99
58941,1.60,0.44,-1.82
58959,1.20,0.40,-1.55
58978,0.96,0.36,-1.37
58996,0.91,0.33,-1.31
59015,1.04,0.28,-1.30
59033,1.08,0.30,-1.31
59052,0.89,0.36,-1.07
59070,0.64,0.34,-0.94
59089,0.31,0.27,-0.56
59107,-0.10,0.19,-0.37
59126,-0.54,0.14,-0.22
59144,-0.91,0.16,-0.10
59163,-1.24,0.15,-0.10
59181,-1.53,0.14,-0.16
59200,-1.86,0.15,-0.17
59218,-2.22,0.17,-0.14
59237,-2.59,0.17,-0.13
59255,-2.87,0.17,-0.15
59274,-2.93,0.21,-0.06
59292,-2.69,0.22,0.08
59311,-2.16,0.16,0.20
59329,-1.59,0.10,0.14
59348,-1.26,0.10,0.03
59366,-1.05,0.23,-0.16
59385,-0.71,0.36,-0.55
59403,-0.02,0.49,-0.97
59422,0.81,0.58,-1.37
59440,1.75,0.52,-1.74
59459,2.46,0.33,-1.91
59477,2.92,0.05,-2.35
59496,2.94,-0.27,-2.24
59514,2.34,-0.29,-1.95
59533,1.32,-0.19,-1.54
59551,0.67,-0.17,-1.45
59570,0.47,-0.25,-1.46
59588,0.52,-0.26,-1.27
59607,0.62,-0.30,-1.20
59625,0.66,-0.31,-1.16
59644,0.51,-0.26,-1.18
59662,0.28,-0.19,-1.18
59681,0.12,-0.17,-1.10
59699,0.05,-0.16,-1.02
59718,0.03,-0.18,-0.95
59736,0.01,-0.22,-0.89
59755,-0.04,-0.25,-0.86
59773,-0.11,-0.26,-0.84
59792,-0.15,-0.29,-0.77
59810,-0.16,-0.32,-0.72
59829,-0.15,-0.34,-0.69
59847,-0.12,-0.36,-0.69
59866,-0.06,-0.38,-0.67
59884,-0.03,-0.39,-0.70
59903,-0.02,-0.39,-0.74
59921,0.03,-0.38,-0.79
59940,0.13,-0.39,-0.81
59958,0.20,-0.39,-0.84
59977,0.21,-0.37,-0.88
59995,0.23,-0.36,-0.88
60014,0.22,-0.35,-0.91
60032,0.20,-0.34,-0.94
60051,0.19,-0.33,-0.95
60069,0.20,-0.32,-0.93
60088,0.20,-0.32,-0.91
60106,0.16,-0.31,-0.92
60125,0.13,-0.30,-0.95
60143,0.14,-0.30,-0.95
60162,0.13,-0.29,-0.94
60180,0.13,-0.27,-0.95
60199,0.13,-0.27,-0.96
60217,0.16,-0.27,-0.96
60236,0.18,-0.27,-0.97
60254,0.19,-0.28,-0.96
60273,0.20,-0.28,-0.95
60291,0.21,-0.29,-0.95
60310,0.22,-0.30,-0.92
60328,0.17,-0.30,-0.91
60347,0.13,-0.30,-0.92
60365,0.15,-0.29,-0.93
60384,0.18,-0.30,-0.94
60402,0.20,-0.30,-0.95
60421,0.19,-0.30,-0.96
60439,0.19,-0.29,-0.96
60458,0.21,-0.29,-0.96
60476,0.21,-0.30,-0.96
60495,0.18,-0.31,-0.93
60513,0.14,-0.33,-0.87
60532,0.09,-0.31,-0.87
60550,0.07,-0.31,-0.89
60569,0.10,-0.31,-0.88
60587,0.11,-0.31,-0.88
60606,0.10,-0.30,-0.91
60624,0.10,-0.29,-0.92
60643,0.11,-0.29,-0.91
60661,0.12,-0.29,-0.89
60680,0.15,-0.30,-0.89
60698,0.15,-0.28,-0.90
60717,0.14,-0.29,-0.90
60735,0.12,-0.28,-0.89
60754,0.10,-0.28,-0.87
60772,0.11,-0.28,-0.88
60791,0.14,-0.25,-0.90
60809,0.16,-0.26,-0.91
60828,0.16,-0.25,-0.88
60846,0.14,-0.25,-0.85
60865,0.13,-0.24,-0.81
60883,0.15,-0.22,-0.82
60902,0.25,-0.16,-0.93
60920,0.53,-0.09,-1.20
60939,0.96,0.02,-1.56
60957,1.50,0.04,-1.79
60976,1.93,0.07,-1.93
60994,2.06,0.06,-1.86
61013,1.90,0.07,-1.67
61031,1.46,0.12,-1.50
61050,1.06,0.14,-1.42
61068,0.93,0.07,-1.33
61087,0.78,0.07,-1.32
61105,0.70,0.02,-0.99
61124,0.53,0.05,-0.85
61142,0.51,-0.15,-0.68
61161,0.22,-0.02,-0.82
61179,-0.15,-0.02,-0.45
61198,-0.57,-0.01,-0.15
61216,-1.00,0.04,-0.06
61235,-1.44,0.07,-0.10
61253,-1.85,0.13,-0.22
61272,-2.16,0.16,-0.24
61290,-2.40,0.19,-0.23
61309,-2.64,0.21,-0.14
61327,-2.82,0.24,-0.13
61346,-2.85,0.29,-0.06
61364,-2.65,0.30,0.03
61383,-2.20,0.28,0.11
61401,-1.65,0.21,0.11
61420,-1.34,0.23,-0.07
61438,-1.14,0.34,-0.26
61457,-0.84,0.47,-0.68
61475,-0.22,0.66,-1.00
61494,0.58,0.93,-1.36
61512,1.61,1.03,-1.88
61531,2.56,1.10,-2.16
61549,3.44,0.90,-2.87
61568,3.95,0.57,-3.41
61586,3.84,0.22,-3.23
61605,3.15,0.13,-2.48
61623,2.04,0.24,-1.84
61642,1.31,0.19,-1.58
61660,1.06,0.17,-1.67
61679,1.02,0.12,-1.59
61697,1.15,-0.06,-1.41
61716,1.03,-0.01,-1.36
61734,0.66,0.02,-0.93
61753,0.26,0.01,-0.72
61771,0.04,-0.19,-0.57
61790,-0.25,-0.02,-0.92
61808,-0.43,-0.05,-0.65
61827,-0.63,-0.06,-0.41
61845,-0.86,-0.03,-0.24
61864,-1.15,-0.03,-0.23
61882,-1.50,0.01,-0.20
61901,-1.86,0.04,-0.15
61919,-2.24,0.05,-0.17
61938,-2.57,0.10,-0.14
61956,-2.77,0.16,-0.15
61975,-2.74,0.17,-0.05
61993,-2.44,0.18,0.03
62012,-1.87,0.13,0.07
62030,-1.34,0.13,0.07
62049,-1.01,0.25,-0.10
62067,-0.66,0.43,-0.44
62086,-0.08,0.70,-0.88
62104,0.69,0.84,-1.31
62123,1.54,0.95,-1.80
62141,2.29,1.01,-2.26
62160,3.02,1.05,-3.04
62178,3.54,0.82,-3.61
62197,3.63,0.47,-3.52
62215,3.26,0.30,-2.77
62234,2.32,0.28,-1.93
62252,1.32,0.34,-1.45
62271,0.68,0.30,-1.27
62289,0.35,0.15,-1.41
62308,0.35,0.08,-1.46
62326,0.44,-0.01,-1.32
62345,0.42,-0.01,-0.97
62363,0.35,-0.14,-0.75
62382,0.13,-0.03,-0.85
62400,-0.08,-0.08,-0.65
62419,-0.33,-0.10,-0.50
62437,-0.60,-0.13,-0.38
62456,-0.92,-0.13,-0.35
62474,-1.26,-0.08,-0.31
62493,-1.59,-0.06,-0.27
62511,-1.91,-0.02,-0.24
62530,-2.19,0.01,-0.25
62548,-2.39,0.04,-0.24
62567,-2.42,0.03,-0.19
62585,-2.27,0.04,-0.10
62604,-1.91,0.03,-0.01
62622,-1.42,-0.01,0.01
62641,-1.04,-0.04,-0.08
62659,-0.84,-0.07,-0.22
62678,-0.68,0.04,-0.43
62696,-0.34,0.16,-0.71
62715,0.21,0.30,-0.97
62733,0.79,0.30,-1.17
62752,1.27,0.32,-1.23
62770,1.58,0.17,-1.39
62789,1.76,0.25,-1.80
62807,1.91,0.32,-2.13
62826,2.07,0.39,-2.48
62844,2.27,0.37,-2.66
62863,2.38,0.26,-2.65
62881,2.27,0.22,-2.09
62900,1.89,0.16,-1.76
62918,1.46,0.15,-1.62
62937,1.07,0.19,-1.57
62955,0.80,0.20,-1.60
62974,0.69,0.21,-1.52
62992,0.67,0.19,-1.38
63011,0.68,0.08,-1.18
63029,0.44,0.10,-1.13
63048,0.19,0.04,-0.77
63066,-0.14,0.14,-0.72
63085,-0.35,-0.01,-0.33
63103,-0.58,-0.08,-0.67
63122,-0.76,-0.04,-0.56
63140,-0.96,-0.13,-0.38
63159,-1.18,-0.13,-0.33
63177,-1.40,-0.10,-0.33
63196,-1.62,-0.10,-0.34
63214,-1.81,-0.10,-0.25
63233,-1.95,-0.09,-0.23
63251,-2.00,-0.12,-0.18
63270,-1.96,-0.09,-0.13
63288,-1.82,-0.11,-0.07
63307,-1.59,-0.09,-0.06
63325,-1.33,-0.12,-0.05
63344,-1.15,-0.13,-0.07
63362,-1.10,-0.11,-0.11
63381,-1.11,-0.01,-0.13
63399,-1.04,0.20,-0.18
63418,-0.72,0.50,-0.42
63436,-0.08,0.67,-0.94
63455,0.68,0.86,-1.44
63473,1.49,0.86,-1.89
63492,2.10,0.91,-2.51
63510,2.64,0.70,-2.73
63529,2.93,0.06,-2.93
63547,2.74,-0.06,-2.16
63566,1.92,-0.15,-1.28
63584,0.97,-0.09,-0.93
63603,0.35,-0.05,-1.08
63621,0.07,-0.07,-1.35
63640,0.02,-0.09,-1.47
63658,0.11,-0.14,-1.35
63677,0.26,-0.18,-1.16
63695,0.32,-0.19,-1.05
63714,0.25,-0.17,-1.05
63732,0.12,-0.14,-1.10
63751,0.02,-0.13,-1.11
63769,-0.01,-0.16,-1.03
63788,-0.02,-0.19,-0.93
63806,-0.05,-0.23,-0.86
63825,-0.09,-0.26,-0.85
63843,-0.13,-0.28,-0.84
63862,-0.16,-0.30,-0.81
63880,-0.16,-0.32,-0.77
63899,-0.15,-0.33,-0.75
63917,-0.12,-0.33,-0.74
63936,-0.08,-0.32,-0.76
63954,-0.03,-0.31,-0.84
63973,0.03,-0.28,-0.90
63991,0.10,-0.27,-0.97
64010,0.15,-0.28,-0.96
64028,0.17,-0.26,-0.96
64047,0.17,-0.29,-0.95
64065,0.13,-0.28,-0.90
64084,0.09,-0.31,-0.90
64102,0.07,-0.28,-0.93
64121,0.06,-0.28,-0.92
64139,0.05,-0.27,-0.91
64158,0.06,-0.26,-0.92
64176,0.08,-0.24,-0.95
64195,0.11,-0.23,-1.00
64213,0.13,-0.23,-1.01
64232,0.14,-0.24,-1.01
64250,0.13,-0.24,-0.98
64269,0.12,-0.25,-0.97
64287,0.11,-0.26,-0.95
64306,0.10,-0.27,-0.93
64324,0.09,-0.27,-0.94
64343,0.09,-0.27,-0.94
64361,0.09,-0.26,-0.96
64380,0.11,-0.26,-0.98
64398,0.12,-0.26,-0.97
64417,0.11,-0.26,-0.95
64435,0.10,-0.26,-0.94
64454,0.09,-0.28,-0.92
64472,0.07,-0.29,-0.91
64491,0.04,-0.29,-0.89
64509,0.04,-0.30,-0.87
64528,0.04,-0.29,-0.88
64546,0.04,-0.30,-0.88
64565,0.03,-0.28,-0.90
64583,0.04,-0.27,-0.93
64602,0.03,-0.26,-0.94
64620,0.03,-0.25,-0.95
64639,0.04,-0.24,-0.97
64657,0.07,-0.25,-0.96
64676,0.10,-0.26,-0.95
64694,0.11,-0.26,-0.95
64713,0.11,-0.26,-0.93
64731,0.09,-0.26,-0.92
64750,0.08,-0.25,-0.94
64768,0.08,-0.26,-0.95
64787,0.09,-0.26,-0.97
64805,0.10,-0.26,-0.97
64824,0.10,-0.26,-0.97
64842,0.09,-0.25,-0.97
64861,0.07,-0.25,-0.97
64879,0.05,-0.26,-0.98
64898,0.05,-0.27,-0.97
64916,0.04,-0.27,-0.97
64935,0.04,-0.27,-0.96
64953,0.04,-0.28,-0.96
64972,0.04,-0.28,-0.95
64990,0.04,-0.27,-0.97
65009,0.07,-0.27,-0.99
65027,0.09,-0.28,-0.98
65046,0.07,-0.28,-0.96
65064,0.05,-0.28,-0.94
65083,0.04,-0.29,-0.93
65101,0.04,-0.29,-0.92
65120,0.05,-0.29,-0.92
65138,0.06,-0.29,-0.90
65157,0.06,-0.30,-0.90
65175,0.06,-0.29,-0.90
65194,0.07,-0.29,-0.89
65212,0.06,-0.29,-0.89
65231,0.04,-0.29,-0.90
65249,0.01,-0.29,-0.90
65268,-0.01,-0.28,-0.90
65286,-0.02,-0.29,-0.89
65305,-0.01,-0.28,-0.90
65323,0.00,-0.29,-0.90
65342,0.02,-0.28,-0.90
65360,0.03,-0.28,-0.91
65379,0.03,-0.28,-0.91
65397,0.03,-0.28,-0.90
65416,0.03,-0.27,-0.92
65434,0.05,-0.28,-0.93
65453,0.07,-0.28,-0.93
65471,0.08,-0.28,-0.93
65490,0.08,-0.28,-0.92
65508,0.08,-0.28,-0.93
65527,0.08,-0.27,-0.94
