timestamp,AX,AY,AZ
0,-0.47,0.43,-0.74
18,-0.47,0.43,-0.75
37,-0.47,0.43,-0.75
55,-0.47,0.43,-0.75
74,-0.47,0.44,-0.74
92,-0.47,0.44,-0.74
111,-0.48,0.44,-0.74
129,-0.47,0.43,-0.74
148,-0.47,0.43,-0.74
166,-0.47,0.43,-0.74
185,-0.47,0.43,-0.74
203,-0.47,0.43,-0.74
222,-0.47,0.43,-0.74
240,-0.47,0.44,-0.74
259,-0.47,0.44,-0.74
277,-0.47,0.44,-0.74
296,-0.47,0.43,-0.74
314,-0.54,0.20,-0.67
333,-0.59,-0.05,-0.53
351,-0.53,0.69,-0.60
370,-0.51,0.61,-0.96
388,-0.24,0.78,-0.91
407,-0.43,0.47,-0.90
425,-0.45,0.46,-0.71
444,-0.42,0.48,-0.71
462,-0.40,0.47,-0.78
481,-0.39,0.43,-0.83
499,-0.37,0.43,-0.87
518,-0.38,0.35,-0.82
536,-0.40,0.38,-0.78
555,-0.41,0.41,-0.73
573,-0.42,0.42,-0.73
592,-0.40,0.43,-0.78
610,-0.40,0.45,-0.84
629,-0.45,0.41,-0.82
647,-0.49,0.38,-0.69
666,-0.51,0.42,-0.57
684,-0.58,0.41,-0.63
703,-0.41,0.46,-0.90
721,-0.33,0.51,-0.95
740,-0.33,0.76,-0.70
758,-0.28,0.83,-0.71
777,-0.24,0.69,-0.91
795,-0.23,0.61,-0.90
814,-0.08,0.44,-0.74
832,-0.07,0.33,-0.83
851,-0.01,0.50,-0.74
869,-0.03,0.51,-0.73
888,-0.10,0.34,-0.68
906,-0.43,0.16,-0.91
925,-1.54,0.45,-0.77
943,-0.51,0.56,-0.90
962,-0.16,0.63,-0.97
980,-0.07,0.76,-0.70
999,0.06,0.45,-0.90
1017,0.07,0.68,-0.88
1036,0.06,0.88,-0.98
1054,0.22,1.03,-1.00
1073,0.28,0.94,-1.09
1091,0.25,0.89,-1.01
1110,0.25,0.85,-0.92
1128,0.28,0.77,-1.02
1147,0.29,0.75,-1.11
1165,0.21,0.79,-1.12
1184,0.11,0.84,-1.08
1202,-1.25,1.00,-1.02
1221,0.20,0.74,-1.04
1239,0.43,0.75,-0.72
1258,0.46,0.77,-0.61
1276,0.49,0.75,-0.57
1295,0.51,0.79,-0.52
1313,0.51,0.74,-0.52
1332,0.44,0.64,-0.47
1350,0.23,0.63,-0.51
1369,-0.04,0.61,-0.66
1387,-0.27,0.63,-0.81
1406,-0.37,0.71,-0.97
1424,-0.30,0.78,-1.05
1443,-0.09,0.82,-1.07
1461,0.18,0.76,-0.94
1480,0.37,0.73,-0.82
1498,0.47,0.75,-0.76
1517,0.51,0.87,-0.81
1535,0.51,0.79,-0.82
1554,0.38,0.75,-0.83
1572,0.17,0.74,-0.86
1591,-0.01,0.77,-0.87
1609,-0.10,0.77,-0.84
1628,-0.10,0.73,-0.81
1646,-0.06,0.73,-0.80
1665,0.01,0.76,-0.81
1683,0.09,0.79,-0.80
1702,0.11,0.72,-0.73
1720,0.10,0.69,-0.64
1739,0.03,0.70,-0.67
1757,-0.04,0.76,-0.79
1776,-0.09,0.78,-0.93
1794,-0.19,0.73,-1.05
1813,-0.32,0.72,-1.08
1831,-0.44,0.65,-1.01
1850,-0.33,0.40,-1.01
1868,-0.33,0.62,-0.91
1887,-0.19,0.66,-0.75
1905,-0.06,0.53,-0.64
1924,-0.06,0.42,-0.53
1942,-0.17,0.40,-0.57
1961,-0.33,0.44,-0.64
1979,-0.49,0.56,-0.74
1998,-0.63,0.40,-0.82
2016,-0.78,0.43,-0.84
2035,-0.83,0.45,-0.80
2053,-0.73,0.35,-0.73
2072,-0.54,0.26,-0.66
2090,-0.43,0.19,-0.58
2109,-0.53,-0.00,-0.39
2127,-0.59,-0.01,-0.18
2146,-0.90,0.05,-0.20
2164,-1.11,0.03,-0.32
2183,-1.16,-0.02,-0.36
2201,-1.06,-0.02,-0.46
2220,-0.93,-0.14,-0.41
2238,-0.84,-0.14,-0.36
2257,-0.75,-0.14,-0.38
2275,-0.71,-0.14,-0.46
2294,-0.78,-0.09,-0.48
2312,-0.86,-0.10,-0.48
2331,-0.83,-0.09,-0.43
2349,-0.76,-0.10,-0.38
2368,-0.66,-0.23,-0.36
2386,-0.71,-0.25,-0.34
2405,-0.94,-0.27,-0.23
2423,-1.18,-0.20,-0.24
2442,-1.34,-0.18,-0.20
2460,-1.41,-0.16,-0.32
2479,-1.35,-0.17,-0.37
2497,-1.24,-0.19,-0.42
2516,-1.06,-0.22,-0.39
2534,-0.91,-0.25,-0.41
2553,-0.84,-0.24,-0.53
2571,-0.84,-0.23,-0.58
2590,-0.90,-0.23,-0.57
2608,-0.97,-0.23,-0.48
2627,-1.03,-0.24,-0.45
2645,-0.99,-0.20,-0.49
2664,-0.92,-0.21,-0.57
2682,-0.83,-0.22,-0.67
2701,-0.78,-0.25,-0.67
2719,-0.75,-0.23,-0.58
2738,-0.73,-0.24,-0.55
2756,-0.72,-0.23,-0.60
2775,-0.72,-0.21,-0.69
2793,-0.71,-0.20,-0.77
2812,-0.65,-0.22,-0.75
2830,-0.62,-0.24,-0.68
2849,-0.69,-0.26,-0.62
2867,-0.76,-0.24,-0.60
2886,-0.82,-0.24,-0.63
2904,-0.83,-0.24,-0.64
2923,-0.78,-0.23,-0.65
2941,-0.71,-0.24,-0.65
2960,-0.66,-0.22,-0.71
2978,-0.63,-0.22,-0.72
2997,-0.64,-0.25,-0.74
3015,-0.69,-0.24,-0.73
3034,-0.69,-0.26,-0.71
3052,-0.69,-0.25,-0.66
3071,-0.70,-0.26,-0.65
3089,-0.70,-0.24,-0.68
3108,-0.66,-0.25,-0.70
3126,-0.62,-0.25,-0.75
3145,-0.60,-0.27,-0.76
3163,-0.62,-0.26,-0.75
3182,-0.66,-0.26,-0.67
3200,-0.71,-0.27,-0.60
3219,-0.79,-0.27,-0.55
3237,-0.87,-0.27,-0.57
3256,-0.90,-0.26,-0.62
3274,-0.82,-0.26,-0.62
3293,-0.75,-0.27,-0.62
3311,-0.73,-0.26,-0.66
3330,-0.78,-0.26,-0.65
3348,-0.93,-0.24,-0.66
3367,-1.10,-0.24,-0.63
3385,-1.23,-0.22,-0.60
3404,-1.24,-0.22,-0.57
3422,-1.20,-0.25,-0.53
3441,-1.19,-0.23,-0.52
3459,-1.20,-0.21,-0.50
3478,-1.16,-0.19,-0.46
3496,-1.11,-0.22,-0.37
3515,-1.14,-0.22,-0.33
3533,-1.22,-0.20,-0.34
3552,-1.27,-0.17,-0.33
3570,-1.28,-0.14,-0.34
3589,-1.29,-0.12,-0.30
3607,-1.26,-0.07,-0.26
3626,-1.23,-0.05,-0.19
3644,-1.25,0.03,-0.22
3663,-1.25,0.08,-0.28
3681,-1.19,0.14,-0.36
3700,-0.96,0.26,-0.52
3718,-0.53,0.38,-0.61
3737,-0.09,0.30,-0.60
3755,0.07,0.24,-0.59
3774,-0.12,0.21,-0.63
3792,-0.48,0.28,-0.65
3811,-0.74,0.24,-0.61
3829,-0.86,0.34,-0.59
3848,-0.70,0.41,-0.56
3866,-0.33,0.46,-0.62
3885,0.04,0.53,-0.79
3903,0.29,0.53,-0.96
3922,0.37,0.48,-1.08
3940,0.30,0.45,-1.19
3959,0.14,0.41,-1.18
3977,-0.01,0.42,-1.03
3996,-0.10,0.40,-0.93
4014,-0.14,0.46,-0.88
4033,-0.01,0.39,-1.05
4051,0.27,0.61,-0.85
4070,0.56,0.58,-0.91
4088,0.83,0.44,-1.08
4107,0.89,0.43,-1.23
4125,0.79,0.44,-1.35
4144,0.64,0.37,-1.34
4162,0.46,0.35,-1.14
4181,0.32,0.34,-0.86
4199,0.26,0.40,-0.73
4218,0.36,0.47,-0.80
4236,0.56,0.47,-1.08
4255,0.71,0.47,-1.34
4273,0.75,0.44,-1.45
4292,0.74,0.42,-1.44
4310,0.72,0.35,-1.26
4329,0.69,0.30,-1.06
4347,0.60,0.29,-0.96
4366,0.51,0.28,-0.95
4384,0.45,0.31,-1.00
4403,0.46,0.31,-1.10
4421,0.48,0.27,-1.19
4440,0.41,0.26,-1.27
4458,0.36,0.22,-1.19
4477,0.31,0.20,-1.16
4495,0.28,0.19,-0.94
4514,0.27,0.12,-0.88
4532,0.24,0.12,-0.90
4551,0.19,0.08,-0.95
4569,0.11,0.08,-1.00
4588,0.07,0.03,-1.03
4606,-0.00,0.07,-1.09
4625,-0.02,0.08,-0.97
4643,-0.03,0.06,-0.85
4662,-0.05,0.07,-0.90
4680,-0.03,0.07,-0.96
4699,0.00,0.07,-1.03
4717,0.01,0.12,-1.17
4736,-0.02,0.08,-1.02
4754,-0.01,0.06,-1.00
4773,0.02,0.06,-0.93
4791,0.02,0.05,-0.97
4810,-0.01,0.06,-1.00
4828,-0.01,0.06,-1.01
4847,-0.02,0.06,-0.97
4865,-0.01,0.06,-0.94
4884,0.02,0.06,-0.91
4902,0.04,0.06,-0.92
4921,0.02,0.07,-0.98
4939,-0.00,0.09,-1.02
4958,0.00,0.09,-1.05
4976,0.03,0.08,-1.05
4995,0.06,0.09,-1.01
5013,0.06,0.06,-0.93
5032,0.03,0.06,-0.90
5050,0.01,0.08,-0.92
5069,0.03,0.08,-0.96
5087,0.07,0.08,-0.97
5106,0.07,0.08,-0.98
5124,0.04,0.09,-0.98
5143,0.02,0.09,-0.98
5161,0.01,0.09,-0.99
5180,0.01,0.09,-1.01
5198,0.03,0.11,-1.00
5217,0.06,0.09,-0.95
5235,0.09,0.09,-0.91
5254,0.10,0.10,-0.93
5272,0.13,0.12,-1.01
5291,0.17,0.11,-1.04
5309,0.19,0.11,-1.03
5328,0.17,0.11,-1.02
5346,0.16,0.11,-1.01
5365,0.17,0.13,-1.04
5383,0.19,0.14,-1.05
5402,0.20,0.14,-1.02
5420,0.20,0.15,-1.00
5439,0.20,0.16,-1.02
5457,0.22,0.17,-1.06
5476,0.25,0.18,-1.07
5494,0.27,0.19,-1.09
5513,0.31,0.21,-1.13
5531,0.38,0.23,-1.14
5550,0.43,0.25,-1.16
5568,0.46,0.25,-1.19
5587,0.43,0.24,-1.18
5605,0.37,0.24,-1.13
5624,0.30,0.25,-1.08
5642,0.28,0.25,-1.03
5661,0.30,0.27,-1.06
5679,0.33,0.29,-1.15
5698,0.36,0.32,-1.24
5716,0.37,0.34,-1.27
5735,0.38,0.35,-1.21
5753,0.35,0.34,-1.13
5772,0.29,0.35,-1.08
5790,0.24,0.36,-1.09
5809,0.24,0.36,-1.12
5827,0.29,0.36,-1.09
5846,0.32,0.36,-1.02
5864,0.26,0.38,-1.00
5883,0.16,0.39,-1.03
5901,0.12,0.43,-1.09
5920,0.19,0.42,-1.04
5938,0.20,0.40,-0.99
5957,0.11,0.43,-0.95
5975,0.02,0.39,-0.86
5994,-0.02,0.39,-0.78
6012,-0.02,0.36,-0.70
6031,-0.02,0.36,-0.69
6049,-0.09,0.35,-0.73
6068,-0.18,0.36,-0.82
6086,-0.23,0.36,-0.85
6105,-0.24,0.35,-0.79
6123,-0.26,0.37,-0.67
6142,-0.35,0.34,-0.64
6160,-0.53,0.33,-0.63
6179,-0.68,0.33,-0.57
6197,-0.71,0.28,-0.49
6216,-0.71,0.24,-0.43
6234,-0.73,0.16,-0.42
6253,-0.77,0.23,-0.29
6271,-0.88,0.16,-0.49
6290,-1.04,0.19,-0.75
6308,-1.10,0.12,-0.51
6327,-1.13,0.18,-0.45
6345,-1.07,-0.08,-0.38
6364,-1.23,0.00,-0.33
6382,-1.34,0.01,-0.30
6401,-1.39,-0.03,-0.37
6419,-1.42,-0.07,-0.43
6438,-1.43,-0.08,-0.48
6456,-1.40,0.02,-0.60
6475,-1.35,-0.09,-0.55
6493,-1.32,-0.09,-0.64
6512,-1.24,-0.11,-0.63
6530,-1.18,-0.10,-0.63
6549,-1.12,-0.14,-0.64
6567,-1.07,-0.13,-0.62
6586,-0.96,-0.15,-0.61
6604,-0.85,-0.15,-0.62
6623,-0.79,-0.16,-0.71
6641,-0.76,-0.16,-0.77
6660,-0.74,-0.17,-0.76
6678,-0.72,-0.17,-0.70
6697,-0.70,-0.17,-0.64
6715,-0.68,-0.18,-0.62
6734,-0.70,-0.18,-0.62
6752,-0.72,-0.18,-0.65
6771,-0.72,-0.18,-0.66
6789,-0.70,-0.18,-0.66
6808,-0.68,-0.17,-0.68
6826,-0.63,-0.17,-0.73
6845,-0.57,-0.16,-0.81
6863,-0.54,-0.15,-0.87
6882,-0.50,-0.15,-0.87
6900,-0.49,-0.16,-0.85
6919,-0.51,-0.16,-0.83
6937,-0.57,-0.17,-0.77
6956,-0.63,-0.17,-0.73
6974,-0.65,-0.16,-0.73
6993,-0.61,-0.16,-0.78
7011,-0.53,-0.16,-0.83
7030,-0.49,-0.16,-0.84
7048,-0.52,-0.15,-0.85
7067,-0.55,-0.14,-0.85
7085,-0.55,-0.15,-0.82
7104,-0.57,-0.16,-0.79
7122,-0.59,-0.17,-0.77
7141,-0.58,-0.16,-0.76
7159,-0.52,-0.16,-0.78
7178,-0.48,-0.16,-0.83
7196,-0.46,-0.16,-0.86
7215,-0.46,-0.16,-0.86
7233,-0.49,-0.16,-0.85
7252,-0.51,-0.15,-0.84
7270,-0.52,-0.16,-0.83
7289,-0.54,-0.16,-0.80
7307,-0.55,-0.15,-0.77
7326,-0.54,-0.17,-0.72
7344,-0.52,-0.16,-0.72
7363,-0.52,-0.15,-0.82
7381,-0.52,-0.15,-0.91
7400,-0.52,-0.15,-0.89
7418,-0.52,-0.15,-0.83
7437,-0.53,-0.14,-0.81
7455,-0.55,-0.15,-0.83
7474,-0.58,-0.16,-0.83
7492,-0.63,-0.15,-0.82
7511,-0.63,-0.14,-0.81
7529,-0.58,-0.14,-0.81
7548,-0.53,-0.15,-0.83
7566,-0.54,-0.15,-0.84
7585,-0.57,-0.14,-0.82
7603,-0.59,-0.14,-0.80
7622,-0.59,-0.15,-0.78
7640,-0.61,-0.16,-0.75
7659,-0.62,-0.16,-0.74
7677,-0.61,-0.16,-0.75
7696,-0.58,-0.17,-0.76
7714,-0.54,-0.17,-0.74
7733,-0.52,-0.16,-0.75
7751,-0.48,-0.16,-0.77
7770,-0.46,-0.16,-0.82
7788,-0.45,-0.16,-0.85
7807,-0.43,-0.17,-0.83
7825,-0.43,-0.16,-0.80
7844,-0.44,-0.15,-0.80
7862,-0.45,-0.15,-0.85
7881,-0.44,-0.15,-0.89
7899,-0.43,-0.15,-0.90
7918,-0.40,-0.15,-0.84
7936,-0.41,-0.16,-0.81
7955,-0.47,-0.14,-0.85
7973,-0.47,-0.13,-0.89
7992,-0.45,-0.14,-0.88
8010,-0.44,-0.14,-0.86
8029,-0.47,-0.14,-0.85
8047,-0.53,-0.13,-0.84
8066,-0.58,-0.12,-0.84
8084,-0.60,-0.12,-0.84
8103,-0.62,-0.10,-0.84
8121,-0.65,-0.10,-0.88
8140,-0.75,-0.08,-0.93
8158,-0.90,-0.07,-0.91
8177,-1.07,-0.07,-0.85
8195,-1.25,-0.06,-0.78
8214,-1.46,-0.02,-0.72
8232,-1.72,0.03,-0.62
8251,-2.05,0.12,-0.59
8269,-2.32,0.23,-0.61
8288,-2.51,0.35,-0.67
8306,-2.64,0.49,-0.74
8325,-2.70,0.63,-0.76
8343,-2.70,0.79,-0.70
8362,-2.60,0.90,-0.53
8380,-2.43,1.05,-0.36
8399,-2.22,1.11,-0.25
8417,-1.88,1.21,-0.24
8436,-1.36,1.27,-0.02
8454,-0.82,1.26,0.08
8473,-0.41,1.20,0.04
8491,-0.11,1.26,-0.01
8510,0.19,1.38,-0.24
8528,0.58,1.42,-0.48
8547,0.97,1.40,-0.73
8565,1.31,1.27,-0.95
8584,1.50,1.13,-1.06
8602,1.54,1.09,-1.07
8621,1.60,1.08,-1.04
8639,1.81,1.32,-1.01
8658,1.91,1.03,-1.20
8676,2.09,0.92,-1.55
8695,2.50,0.71,-1.48
8713,2.48,0.58,-1.52
8732,2.08,0.51,-1.45
8750,1.55,0.45,-1.31
8769,1.18,0.39,-1.17
8787,1.08,0.28,-1.02
8806,1.07,0.19,-0.85
8824,0.95,0.19,-0.95
8843,0.82,0.14,-1.02
8861,0.61,0.13,-1.09
8880,0.41,0.13,-1.05
8898,0.31,0.12,-0.98
8917,0.29,0.10,-0.95
8935,0.33,0.08,-0.98
8954,0.36,0.05,-1.03
8972,0.33,0.02,-1.01
8991,0.26,-0.02,-0.94
9009,0.19,-0.04,-0.91
9028,0.13,-0.04,-0.93
9046,0.11,-0.05,-0.92
9065,0.12,-0.05,-0.91
9083,0.12,-0.05,-0.91
9102,0.10,-0.07,-0.90
9120,0.11,-0.07,-0.88
9139,0.14,-0.09,-0.85
9157,0.14,-0.08,-0.87
9176,0.17,-0.07,-0.91
9194,0.19,-0.06,-0.94
9213,0.19,-0.04,-0.98
9231,0.20,-0.09,-1.02
9250,0.18,-0.04,-0.99
9268,0.20,-0.08,-1.03
9287,0.16,-0.08,-1.00
9305,0.13,-0.09,-0.93
9324,0.11,-0.10,-0.83
9342,0.10,-0.08,-0.84
9361,0.12,-0.08,-0.92
9379,0.15,-0.06,-1.02
9398,0.17,-0.06,-1.08
9416,0.18,-0.06,-1.06
9435,0.17,-0.06,-1.02
9453,0.16,-0.06,-0.96
9472,0.14,-0.07,-0.90
9490,0.15,-0.06,-0.91
9509,0.20,-0.08,-1.00
9527,0.22,-0.04,-1.03
9546,0.22,-0.05,-1.05
9564,0.19,-0.06,-1.05
9583,0.15,-0.05,-1.01
9601,0.15,-0.06,-0.96
9620,0.17,-0.05,-0.97
9638,0.20,-0.05,-0.99
9657,0.21,-0.04,-0.99
9675,0.20,-0.04,-1.01
9694,0.19,-0.03,-1.03
9712,0.18,-0.04,-1.00
9731,0.16,-0.04,-0.96
9749,0.13,-0.04,-0.93
9768,0.11,-0.04,-0.95
9786,0.09,-0.03,-0.99
9805,0.10,-0.02,-1.01
9823,0.12,-0.03,-0.97
9842,0.13,-0.04,-0.91
9860,0.13,-0.03,-0.90
9879,0.14,-0.04,-0.93
9897,0.15,-0.03,-0.96
9916,0.14,-0.04,-0.95
9934,0.13,-0.03,-0.94
9953,0.14,-0.03,-0.92
9971,0.14,-0.04,-0.93
9990,0.14,-0.04,-0.96
10008,0.15,-0.04,-0.99
10027,0.16,-0.05,-0.95
10045,0.16,-0.05,-0.90
10064,0.16,-0.03,-0.94
10082,0.20,-0.01,-0.99
10101,0.26,-0.01,-1.01
10119,0.26,0.01,-1.03
10138,0.26,0.06,-1.09
10156,0.34,0.08,-1.12
10175,0.47,0.11,-1.14
10193,0.66,0.19,-1.08
10212,0.95,0.25,-0.99
10230,1.18,0.34,-1.06
10249,1.32,0.51,-1.23
10267,1.48,0.70,-1.44
10286,1.75,0.89,-1.65
10304,2.08,1.08,-1.88
10323,2.36,1.22,-2.05
10341,2.50,1.34,-2.11
10360,2.47,1.43,-1.97
10378,2.26,1.55,-1.67
10397,1.90,1.61,-1.19
10415,1.48,1.63,-0.75
10434,1.17,1.63,-0.45
10452,0.88,1.59,-0.29
10471,0.51,1.62,-0.32
10489,0.09,1.60,-0.41
10508,-0.36,1.63,-0.53
10526,-0.75,1.63,-0.50
10545,-1.16,1.43,-0.34
10563,-1.59,1.46,-0.18
10582,-1.90,1.32,-0.17
10600,-2.07,1.15,-0.23
10619,-2.13,1.04,-0.49
10637,-2.12,1.05,-0.70
10656,-1.78,0.72,-1.01
10674,-1.88,0.71,-0.81
10693,-1.97,0.41,-0.91
10711,-1.97,0.30,-0.77
10730,-1.99,0.13,-0.63
10748,-1.97,-0.09,-0.53
10767,-1.89,-0.17,-0.55
10785,-1.73,-0.21,-0.61
10804,-1.57,-0.19,-0.67
10822,-1.49,-0.15,-0.67
10841,-1.46,-0.12,-0.65
10859,-1.37,-0.12,-0.61
10878,-1.19,-0.14,-0.56
10896,-1.04,-0.18,-0.49
10915,-0.97,-0.19,-0.48
10933,-0.93,-0.19,-0.50
10952,-0.84,-0.22,-0.50
10970,-0.70,-0.25,-0.53
10989,-0.53,-0.26,-0.61
11007,-0.37,-0.27,-0.74
11026,-0.31,-0.26,-0.86
11044,-0.35,-0.26,-0.89
11063,-0.40,-0.24,-0.92
11081,-0.39,-0.24,-0.93
11100,-0.38,-0.24,-0.90
11118,-0.38,-0.23,-0.88
11137,-0.38,-0.22,-0.87
11155,-0.39,-0.22,-0.91
11174,-0.39,-0.22,-0.94
11192,-0.39,-0.22,-0.93
11211,-0.42,-0.23,-0.91
11229,-0.46,-0.22,-0.93
11248,-0.46,-0.22,-0.92
11266,-0.46,-0.23,-0.88
11285,-0.43,-0.23,-0.87
11303,-0.37,-0.22,-0.88
11322,-0.33,-0.23,-0.89
11340,-0.33,-0.23,-0.90
11359,-0.35,-0.22,-0.91
11377,-0.38,-0.22,-0.89
11396,-0.41,-0.23,-0.85
11414,-0.41,-0.23,-0.81
11433,-0.38,-0.22,-0.83
11451,-0.35,-0.23,-0.88
11470,-0.36,-0.24,-0.90
11488,-0.39,-0.23,-0.88
11507,-0.42,-0.23,-0.85
11525,-0.42,-0.23,-0.85
11544,-0.40,-0.23,-0.86
11562,-0.39,-0.22,-0.88
11581,-0.39,-0.22,-0.86
11599,-0.41,-0.22,-0.84
11618,-0.41,-0.21,-0.84
11636,-0.40,-0.22,-0.88
11655,-0.39,-0.21,-0.90
11673,-0.37,-0.22,-0.89
11692,-0.37,-0.22,-0.87
11710,-0.41,-0.21,-0.88
11729,-0.42,-0.21,-0.87
11747,-0.40,-0.21,-0.86
11766,-0.40,-0.22,-0.84
11784,-0.40,-0.20,-0.89
11803,-0.36,-0.20,-0.93
11821,-0.35,-0.22,-0.92
11840,-0.41,-0.21,-0.90
11858,-0.45,-0.20,-0.88
11877,-0.45,-0.20,-0.87
11895,-0.41,-0.21,-0.89
11914,-0.38,-0.21,-0.88
11932,-0.36,-0.21,-0.87
11951,-0.37,-0.21,-0.87
11969,-0.40,-0.21,-0.88
11988,-0.41,-0.20,-0.90
12006,-0.39,-0.20,-0.89
12025,-0.39,-0.21,-0.86
12043,-0.41,-0.21,-0.85
12062,-0.44,-0.21,-0.86
12080,-0.46,-0.20,-0.85
12099,-0.46,-0.21,-0.84
12117,-0.44,-0.20,-0.85
12136,-0.42,-0.21,-0.86
12154,-0.41,-0.21,-0.87
12173,-0.42,-0.19,-0.90
12191,-0.42,-0.20,-0.92
12210,-0.44,-0.20,-0.91
12228,-0.50,-0.19,-0.87
12247,-0.54,-0.18,-0.85
12265,-0.54,-0.19,-0.85
12284,-0.53,-0.19,-0.85
12302,-0.52,-0.18,-0.86
12321,-0.53,-0.19,-0.87
12339,-0.56,-0.19,-0.84
12358,-0.60,-0.19,-0.83
12376,-0.67,-0.18,-0.82
12395,-0.75,-0.17,-0.83
12413,-0.83,-0.15,-0.84
12432,-0.90,-0.15,-0.79
12450,-1.01,-0.14,-0.72
12469,-1.19,-0.10,-0.70
12487,-1.39,-0.06,-0.73
12506,-1.59,0.01,-0.77
12524,-1.76,0.08,-0.75
12543,-1.89,0.13,-0.66
12561,-2.03,0.19,-0.63
12580,-2.27,0.30,-0.70
12598,-2.55,0.49,-0.86
12617,-2.65,0.68,-0.88
12635,-2.54,0.89,-0.73
12654,-2.29,1.06,-0.47
12672,-2.01,1.16,-0.21
12691,-1.74,1.34,-0.10
12709,-1.35,1.51,-0.13
12728,-0.73,1.55,-0.23
12746,-0.03,1.52,-0.24
12765,0.63,1.48,-0.19
12783,1.21,1.36,-0.20
12802,1.55,1.19,-0.35
12820,1.53,1.13,-0.73
12839,1.33,1.19,-1.15
12857,1.36,1.22,-1.33
12876,1.68,1.16,-1.33
12894,1.99,1.05,-1.38
12913,2.11,0.90,-1.45
12931,2.13,0.44,-1.57
12950,1.96,0.67,-1.45
12968,1.91,0.53,-1.39
12987,1.71,0.43,-1.33
13005,1.34,0.37,-1.28
13024,1.04,0.34,-1.14
13042,0.93,0.29,-1.01
13061,0.94,0.24,-0.93
13079,0.96,0.13,-0.87
13098,0.82,0.09,-0.91
13116,0.59,0.07,-0.98
13135,0.38,0.07,-1.00
13153,0.29,0.06,-0.96
13172,0.33,0.06,-0.91
13190,0.42,0.06,-0.92
13209,0.42,0.06,-0.97
13227,0.35,0.06,-1.00
13246,0.26,0.05,-1.02
13264,0.22,0.04,-1.04
13283,0.29,0.03,-1.03
13301,0.38,-0.01,-0.98
13320,0.33,-0.01,-0.96
13338,0.21,-0.01,-0.94
13357,0.11,-0.00,-0.95
13375,0.09,-0.01,-0.97
13394,0.13,-0.03,-0.98
13412,0.15,-0.05,-0.99
13431,0.14,-0.05,-0.98
13449,0.11,-0.06,-0.97
13468,0.13,-0.06,-0.90
13486,0.18,-0.06,-0.85
13505,0.21,-0.06,-0.91
13523,0.21,-0.05,-1.00
13542,0.18,-0.05,-1.04
13560,0.15,-0.04,-1.01
13579,0.13,-0.03,-0.99
13597,0.15,-0.03,-0.99
13616,0.17,-0.02,-0.99
13634,0.19,-0.01,-0.97
13653,0.22,-0.01,-0.94
13671,0.26,-0.02,-0.94
13690,0.31,-0.03,-0.95
13708,0.33,-0.04,-0.99
13727,0.28,-0.04,-1.05
13745,0.23,-0.03,-1.08
13764,0.19,-0.03,-1.05
13782,0.17,-0.02,-0.97
13801,0.19,-0.04,-0.86
13819,0.19,-0.03,-0.85
13838,0.19,-0.03,-0.90
13856,0.20,-0.03,-0.96
13875,0.22,-0.03,-0.98
13893,0.22,-0.04,-0.98
13912,0.21,-0.04,-0.95
13930,0.19,-0.03,-0.91
13949,0.16,-0.03,-0.90
13967,0.12,-0.02,-0.92
13986,0.11,-0.02,-0.95
14004,0.13,-0.02,-0.96
14023,0.16,-0.02,-0.95
14041,0.19,-0.02,-0.94
14060,0.21,-0.02,-0.95
14078,0.21,-0.02,-0.96
14097,0.20,-0.01,-0.98
14115,0.20,-0.02,-1.00
14134,0.19,-0.02,-1.00
14152,0.16,-0.01,-0.98
14171,0.17,-0.01,-0.97
14189,0.21,-0.01,-0.95
14208,0.25,-0.02,-0.95
14226,0.26,-0.02,-0.98
14245,0.25,-0.02,-1.01
14263,0.24,-0.02,-1.02
14282,0.27,-0.02,-1.00
14300,0.26,-0.03,-0.94
14319,0.22,-0.03,-0.93
14337,0.20,-0.01,-0.95
14356,0.21,-0.02,-0.93
14374,0.23,-0.02,-0.90
14393,0.23,-0.01,-0.90
14411,0.27,0.00,-0.95
14430,0.39,0.02,-0.97
14448,0.51,0.02,-0.95
14467,0.56,0.04,-0.95
14485,0.58,0.09,-0.97
14504,0.69,0.14,-0.98
14522,0.89,0.18,-0.98
14541,1.12,0.24,-1.03
14559,1.38,0.32,-1.07
14578,1.65,0.39,-1.10
14596,1.84,0.51,-1.14
14615,1.91,0.60,-1.28
14633,1.93,0.66,-1.37
14652,1.95,0.77,-1.33
14670,1.99,0.85,-1.17
14689,1.97,0.92,-1.02
14707,1.81,0.99,-0.93
14726,1.47,1.10,-0.91
14744,1.13,1.23,-0.88
14763,0.83,1.29,-0.75
14781,0.49,1.28,-0.62
14800,0.14,1.29,-0.58
14818,-0.11,1.22,-0.52
14837,-0.28,1.11,-0.39
14855,-0.48,1.01,-0.29
14874,-0.72,0.95,-0.27
14892,-0.96,0.89,-0.30
14911,-1.16,0.81,-0.37
14929,-1.27,0.57,-0.70
14948,-1.36,0.72,-0.71
14966,-1.33,0.57,-0.80
14985,-1.41,0.56,-0.98
15003,-1.52,0.55,-1.21
15022,-1.74,0.55,-1.19
15040,-1.84,0.36,-1.03
15059,-1.89,0.34,-1.07
15077,-1.80,0.25,-1.14
15096,-1.62,0.24,-1.00
15114,-1.38,0.15,-0.97
15133,-1.24,0.11,-1.06
15151,-1.16,0.07,-1.06
15170,-1.04,0.05,-0.97
15188,-0.84,0.01,-0.90
15207,-0.67,-0.04,-0.88
15225,-0.64,-0.09,-0.86
15244,-0.65,-0.09,-0.80
15262,-0.62,-0.10,-0.73
15281,-0.53,-0.11,-0.73
15299,-0.40,-0.12,-0.81
15318,-0.30,-0.13,-0.85
15336,-0.29,-0.12,-0.85
15355,-0.28,-0.11,-0.85
15373,-0.26,-0.09,-0.89
15392,-0.20,-0.09,-0.95
15410,-0.16,-0.09,-1.00
15429,-0.15,-0.08,-1.03
15447,-0.17,-0.08,-1.02
15466,-0.18,-0.07,-1.00
15484,-0.16,-0.07,-1.00
15503,-0.17,-0.06,-1.03
15521,-0.18,-0.06,-1.05
15540,-0.20,-0.06,-1.04
15558,-0.20,-0.07,-1.00
15577,-0.21,-0.08,-0.98
15595,-0.25,-0.08,-0.99
15614,-0.29,-0.07,-0.96
15632,-0.30,-0.08,-0.90
15651,-0.31,-0.07,-0.91
15669,-0.32,-0.08,-0.96
15688,-0.32,-0.08,-0.99
15706,-0.30,-0.08,-0.95
15725,-0.26,-0.08,-0.95
15743,-0.24,-0.08,-1.00
15762,-0.26,-0.09,-1.02
15780,-0.29,-0.09,-0.95
15799,-0.29,-0.10,-0.88
15817,-0.27,-0.11,-0.86
15836,-0.27,-0.11,-0.90
15854,-0.25,-0.11,-0.89
15873,-0.25,-0.11,-0.88
15891,-0.26,-0.11,-0.89
15910,-0.28,-0.10,-0.93
15928,-0.30,-0.10,-0.96
15947,-0.26,-0.11,-0.92
15965,-0.22,-0.12,-0.89
15984,-0.22,-0.11,-0.92
16002,-0.23,-0.10,-0.95
16021,-0.24,-0.09,-0.97
16039,-0.22,-0.11,-0.94
16058,-0.23,-0.11,-0.88
16076,-0.28,-0.10,-0.89
16095,-0.28,-0.09,-0.95
16113,-0.23,-0.10,-0.99
16132,-0.22,-0.10,-0.96
16150,-0.24,-0.09,-0.94
16169,-0.27,-0.08,-0.97
16187,-0.28,-0.08,-0.99
16206,-0.28,-0.08,-0.95
16224,-0.28,-0.09,-0.88
16243,-0.26,-0.09,-0.87
16261,-0.24,-0.09,-0.92
16280,-0.27,-0.08,-0.98
16298,-0.29,-0.07,-1.00
16317,-0.27,-0.08,-0.97
16335,-0.26,-0.08,-0.94
16354,-0.31,-0.07,-0.95
16372,-0.36,-0.07,-0.96
16391,-0.36,-0.07,-0.93
16409,-0.31,-0.08,-0.91
16428,-0.29,-0.08,-0.92
16446,-0.33,-0.07,-0.93
16465,-0.37,-0.07,-0.95
16483,-0.39,-0.06,-0.98
16502,-0.40,-0.05,-0.94
16520,-0.41,-0.06,-0.92
16539,-0.42,-0.05,-0.96
16557,-0.37,-0.05,-0.99
16576,-0.32,-0.06,-0.98
16594,-0.37,-0.06,-1.00
16613,-0.43,-0.04,-0.99
16631,-0.42,-0.05,-0.94
16650,-0.39,-0.06,-0.83
16668,-0.50,-0.04,-0.89
16687,-0.64,-0.01,-0.98
16705,-0.75,0.01,-1.02
16724,-0.82,0.04,-0.98
16742,-0.92,0.06,-0.95
16761,-1.04,0.10,-0.96
16779,-1.22,0.14,-0.98
16798,-1.48,0.21,-1.05
16816,-1.74,0.32,-1.11
16835,-1.88,0.40,-1.07
16853,-1.98,0.49,-1.04
16872,-2.05,0.59,-1.03
16890,-2.10,0.69,-0.99
16909,-2.14,0.77,-0.91
16927,-2.14,0.91,-0.80
16946,-2.02,0.99,-0.59
16964,-1.79,1.08,-0.27
16983,-1.51,1.14,-0.03
17001,-1.25,1.21,0.03
17020,-0.90,1.30,0.01
17038,-0.45,1.29,0.03
17057,-0.13,1.28,-0.03
17075,0.07,1.34,-0.14
17094,0.32,1.37,-0.15
17112,0.67,1.45,-0.16
17131,0.99,1.47,-0.30
17149,1.26,1.53,-0.63
17168,1.48,1.50,-1.03
17186,1.78,1.57,-1.25
17205,1.99,1.30,-1.13
17223,2.22,1.39,-1.37
17242,2.66,1.22,-1.62
17260,2.88,1.06,-1.78
17279,2.64,0.84,-1.83
17297,2.10,0.75,-1.67
17316,1.55,0.62,-1.40
17334,1.17,0.50,-1.32
17353,0.90,0.53,-1.33
17371,0.79,0.37,-1.22
17390,0.60,0.33,-1.08
17408,0.41,0.29,-0.86
17427,0.30,0.29,-0.77
17445,0.27,0.26,-0.84
17464,0.25,0.26,-1.02
17482,0.26,0.24,-1.15
17501,0.25,0.20,-1.11
17519,0.18,0.18,-1.04
17538,0.14,0.10,-0.91
17556,0.08,0.12,-0.94
17575,0.08,0.11,-1.02
17593,0.14,0.10,-1.07
17612,0.19,0.08,-0.99
17630,0.22,0.01,-0.91
17649,0.16,0.07,-0.94
17667,0.15,0.07,-1.01
17686,0.18,0.06,-1.04
17704,0.16,0.07,-1.00
17723,0.14,0.07,-0.92
17741,0.16,0.08,-0.90
17760,0.18,0.08,-0.90
17778,0.17,0.07,-0.93
17797,0.14,0.06,-0.98
17815,0.12,0.07,-1.00
17834,0.12,0.06,-0.95
17852,0.14,0.06,-0.88
17871,0.14,0.06,-0.91
17889,0.15,0.07,-0.97
17908,0.19,0.06,-0.98
17926,0.17,0.05,-0.96
17945,0.11,0.06,-1.00
17963,0.10,0.07,-1.04
17982,0.15,0.06,-1.05
18000,0.19,0.07,-1.04
18019,0.21,0.09,-1.02
18037,0.19,0.10,-1.02
18056,0.18,0.11,-1.04
18074,0.19,0.11,-1.02
18093,0.22,0.09,-0.98
18111,0.23,0.08,-0.95
18130,0.20,0.06,-0.93
18148,0.12,0.06,-0.93
18167,0.07,0.06,-0.94
18185,0.11,0.06,-0.94
18204,0.19,0.04,-0.93
18222,0.22,0.03,-0.92
18241,0.16,0.04,-0.93
18259,0.13,0.05,-0.89
18278,0.10,0.05,-0.84
18296,0.07,0.07,-0.85
18315,0.05,0.09,-0.95
18333,0.04,0.09,-1.05
18352,0.07,0.09,-1.05
18370,0.10,0.08,-0.97
18389,0.13,0.08,-0.89
18407,0.14,0.08,-0.90
18426,0.14,0.09,-0.96
18444,0.15,0.10,-1.01
18463,0.18,0.10,-1.02
18481,0.18,0.10,-1.02
18500,0.16,0.10,-1.02
18518,0.15,0.10,-1.00
18537,0.18,0.10,-0.96
18555,0.21,0.09,-0.93
18574,0.21,0.09,-0.97
18592,0.21,0.09,-1.01
18611,0.20,0.09,-1.02
18629,0.23,0.08,-1.00
18648,0.29,0.06,-0.96
18666,0.28,0.05,-0.95
18685,0.20,0.05,-0.93
18703,0.14,0.08,-0.90
18722,0.19,0.09,-0.88
18740,0.27,0.11,-0.89
18759,0.33,0.15,-0.93
18777,0.43,0.20,-0.96
18796,0.62,0.24,-0.99
18814,0.84,0.32,-1.06
18833,1.07,0.40,-1.16
18851,1.32,0.52,-1.17
18870,1.60,0.68,-1.14
18888,1.91,0.88,-1.21
18907,2.28,1.08,-1.36
18925,2.65,1.26,-1.54
18944,2.87,1.37,-1.69
18962,2.85,1.49,-1.69
18981,2.61,1.63,-1.49
18999,2.22,1.74,-1.07
19018,1.78,1.82,-0.68
19036,1.43,1.84,-0.56
19055,1.20,1.92,-0.60
19073,0.98,2.07,-0.50
19092,0.67,2.09,-0.29
19110,0.12,2.12,-0.12
19129,-0.50,2.05,-0.07
19147,-1.07,2.04,-0.05
19166,-1.48,1.85,0.02
19184,-1.69,1.74,0.03
19203,-1.72,1.62,-0.04
19221,-1.70,1.47,-0.24
19240,-1.71,1.37,-0.57
19258,-1.71,1.21,-0.86
19277,-1.80,0.95,-0.90
19295,-1.96,0.65,-0.71
19314,-2.15,0.55,-0.52
19332,-2.21,0.36,-0.32
19351,-2.14,0.36,-0.58
19369,-1.90,0.25,-0.75
19388,-1.74,0.32,-0.86
19406,-1.63,0.31,-0.84
19425,-1.55,0.27,-0.85
19443,-1.51,0.26,-0.92
19462,-1.41,0.18,-0.97
19480,-1.33,0.14,-0.82
19499,-1.22,0.11,-0.72
19517,-1.10,0.07,-0.73
19536,-0.98,0.03,-0.79
19554,-0.81,0.03,-0.83
19573,-0.62,0.02,-0.85
19591,-0.48,0.01,-0.87
19610,-0.43,0.01,-0.91
19628,-0.49,0.01,-0.98
19647,-0.57,0.02,-0.99
19665,-0.56,0.01,-0.93
19684,-0.45,-0.02,-0.83
19702,-0.38,-0.04,-0.80
19721,-0.40,-0.05,-0.81
19739,-0.48,-0.05,-0.82
19758,-0.54,-0.05,-0.83
19776,-0.45,-0.04,-0.86
19795,-0.31,-0.05,-0.91
19813,-0.29,-0.05,-0.92
19832,-0.36,-0.04,-0.92
19850,-0.42,-0.04,-0.93
19869,-0.40,-0.05,-0.95
19887,-0.37,-0.06,-0.94
19906,-0.37,-0.08,-0.89
19924,-0.41,-0.05,-0.87
19943,-0.37,-0.04,-0.90
19961,-0.29,-0.05,-0.93
19980,-0.26,-0.06,-0.91
19998,-0.33,-0.05,-0.90
20017,-0.41,-0.05,-0.90
20035,-0.47,-0.05,-0.91
20054,-0.47,-0.07,-0.85
20072,-0.45,-0.09,-0.76
20091,-0.43,-0.08,-0.78
20109,-0.38,-0.07,-0.91
20128,-0.33,-0.07,-0.99
20146,-0.32,-0.06,-0.98
20165,-0.33,-0.05,-0.94
20183,-0.34,-0.06,-0.93
20202,-0.37,-0.06,-0.94
20220,-0.41,-0.06,-0.90
20239,-0.39,-0.07,-0.82
20257,-0.36,-0.07,-0.81
20276,-0.35,-0.08,-0.86
20294,-0.39,-0.07,-0.88
20313,-0.49,-0.06,-0.89
20331,-0.54,-0.05,-0.89
20350,-0.46,-0.04,-0.87
20368,-0.33,-0.06,-0.89
20387,-0.28,-0.06,-0.97
20405,-0.31,-0.05,-1.02
20424,-0.34,-0.05,-1.00
20442,-0.34,-0.05,-0.95
20461,-0.33,-0.06,-0.91
20479,-0.35,-0.06,-0.89
20498,-0.33,-0.05,-0.89
20516,-0.26,-0.05,-0.93
20535,-0.22,-0.06,-0.95
20553,-0.24,-0.07,-0.94
20572,-0.30,-0.07,-0.93
20590,-0.34,-0.07,-0.91
20609,-0.33,-0.08,-0.87
20627,-0.37,-0.08,-0.87
20646,-0.43,-0.07,-0.87
20664,-0.44,-0.07,-0.86
20683,-0.42,-0.07,-0.86
20701,-0.40,-0.06,-0.91
20720,-0.40,-0.04,-0.96
20738,-0.41,-0.04,-0.96
20757,-0.43,-0.04,-0.92
20775,-0.48,-0.03,-0.92
20794,-0.53,-0.01,-0.97
20812,-0.59,0.01,-1.00
20831,-0.74,0.04,-0.97
20849,-0.91,0.06,-0.94
20868,-1.01,0.07,-0.92
20886,-1.09,0.08,-0.93
20905,-1.19,0.10,-0.95
20923,-1.32,0.14,-0.94
20942,-1.40,0.18,-0.92
20960,-1.42,0.22,-0.90
20979,-1.42,0.25,-0.90
20997,-1.42,0.28,-0.90
21016,-1.44,0.30,-0.87
21034,-1.47,0.34,-0.80
21053,-1.50,0.38,-0.73
21071,-1.53,0.44,-0.68
21090,-1.54,0.52,-0.68
21108,-1.61,0.61,-0.74
21127,-1.73,0.74,-0.79
21145,-1.75,0.85,-0.70
21164,-1.63,0.95,-0.51
21182,-1.40,1.03,-0.33
21201,-1.18,1.13,-0.25
21219,-0.98,1.21,-0.27
21238,-0.71,1.28,-0.36
21256,-0.40,1.27,-0.37
21275,-0.16,1.25,-0.22
21293,-0.13,1.24,-0.08
21312,-0.19,1.39,-0.12
21330,0.03,1.57,-0.28
21349,0.70,1.66,-0.51
21367,1.50,1.62,-0.69
21386,2.26,1.76,-0.96
21404,2.83,1.04,-1.14
21423,2.80,1.14,-1.51
21441,2.62,0.86,-1.68
21460,2.33,0.80,-1.66
21478,2.12,0.69,-1.41
21497,2.00,0.57,-1.18
21515,1.87,0.48,-1.07
21534,1.70,0.45,-1.07
21552,1.58,0.39,-1.09
21571,1.48,0.27,-1.09
21589,1.30,0.26,-1.23
21608,1.07,0.22,-1.07
21626,0.83,0.16,-0.87
21645,0.66,0.14,-0.82
21663,0.56,0.11,-0.92
21682,0.46,0.07,-1.05
21700,0.32,0.05,-1.06
21719,0.17,0.05,-0.99
21737,0.03,0.03,-0.93
21756,-0.07,0.00,-0.93
21774,-0.11,0.01,-0.98
21793,-0.13,0.06,-1.04
21811,-0.10,0.01,-0.99
21830,-0.06,-0.00,-0.98
21848,0.03,-0.01,-0.96
21867,0.11,-0.01,-0.99
21885,0.12,-0.01,-1.00
21904,0.11,0.00,-1.00
21922,0.15,0.01,-0.98
21941,0.26,0.00,-0.99
21959,0.36,-0.04,-0.98
21978,0.36,-0.05,-0.95
21996,0.26,-0.03,-0.92
22015,0.20,-0.03,-0.91
22033,0.19,-0.03,-0.92
22052,0.22,-0.02,-0.94
22070,0.24,-0.01,-0.96
22089,0.25,-0.01,-0.98
22107,0.24,-0.00,-0.99
22126,0.23,0.00,-0.99
22144,0.25,0.00,-0.95
22163,0.29,-0.01,-0.92
22181,0.29,0.00,-0.94
22200,0.27,0.01,-0.95
22218,0.25,0.01,-0.95
22237,0.23,0.03,-0.98
22255,0.21,0.03,-1.01
22274,0.20,0.04,-1.02
22292,0.25,0.03,-0.99
22311,0.32,-0.00,-0.93
22329,0.32,-0.02,-0.94
22348,0.25,-0.01,-1.02
22366,0.18,-0.01,-1.06
22385,0.16,-0.01,-1.00
22403,0.15,-0.02,-0.92
22422,0.12,-0.01,-0.91
22440,0.10,-0.01,-0.94
22459,0.10,-0.01,-0.98
22477,0.13,-0.01,-0.98
22496,0.18,-0.02,-0.91
22514,0.19,-0.02,-0.88
22533,0.17,-0.02,-0.90
22551,0.15,-0.02,-0.95
22570,0.12,-0.02,-0.95
22588,0.10,-0.00,-0.93
22607,0.10,0.00,-0.92
22625,0.11,0.00,-0.89
22644,0.13,0.01,-0.91
22662,0.18,-0.00,-0.94
22681,0.23,-0.01,-0.94
22699,0.26,-0.01,-0.92
22718,0.23,-0.01,-0.90
22736,0.19,0.00,-0.91
22755,0.20,0.01,-0.94
22773,0.23,0.02,-0.95
22792,0.26,0.03,-0.95
22810,0.28,0.05,-1.00
22829,0.33,0.07,-1.06
22847,0.38,0.09,-1.06
22866,0.46,0.11,-1.01
22884,0.58,0.13,-0.97
22903,0.68,0.15,-0.99
22921,0.73,0.18,-1.07
22940,0.78,0.20,-1.13
22958,0.83,0.23,-1.16
22977,0.90,0.25,-1.16
22995,1.00,0.29,-1.14
23014,1.11,0.30,-1.08
23032,1.21,0.33,-1.04
23051,1.29,0.35,-1.03
23069,1.30,0.40,-1.06
23088,1.28,0.43,-1.04
23106,1.27,0.46,-1.00
23125,1.26,0.48,-0.95
23143,1.25,0.51,-0.89
23162,1.20,0.54,-0.82
23180,1.11,0.57,-0.76
23199,1.04,0.62,-0.73
23217,1.04,0.69,-0.75
23236,1.09,0.76,-0.76
23254,1.10,0.81,-0.77
23273,1.00,0.91,-0.88
23291,0.84,1.00,-0.95
23310,0.69,1.06,-0.93
23328,0.60,1.12,-0.86
23347,0.49,1.12,-0.79
23365,0.23,1.13,-0.79
23384,-0.04,1.16,-0.79
23402,-0.16,1.13,-0.71
23421,-0.19,1.07,-0.57
23439,-0.27,1.04,-0.34
23458,-0.50,0.98,-0.21
23476,-0.81,0.98,-0.33
23495,-1.13,0.99,-0.55
23513,-1.40,0.95,-0.77
23532,-1.55,0.85,-0.88
23550,-1.53,0.63,-0.90
23569,-1.58,0.78,-0.99
23587,-1.65,0.65,-0.92
23606,-1.74,0.54,-1.04
23624,-1.82,0.35,-0.99
23643,-1.98,0.40,-0.97
23661,-1.92,0.32,-0.86
23680,-1.71,0.24,-0.76
23698,-1.49,0.14,-0.78
23717,-1.39,0.09,-0.76
23735,-1.31,0.07,-0.78
23754,-1.18,0.01,-0.72
23772,-1.10,-0.03,-0.66
23791,-1.04,-0.05,-0.60
23809,-0.96,-0.08,-0.57
23828,-0.84,-0.09,-0.59
23846,-0.70,-0.11,-0.67
23865,-0.59,-0.12,-0.77
23883,-0.49,-0.10,-0.84
23902,-0.39,-0.10,-0.86
23920,-0.30,-0.11,-0.86
23939,-0.25,-0.10,-0.89
23957,-0.22,-0.09,-0.90
23976,-0.21,-0.09,-0.89
23994,-0.27,-0.09,-0.88
24013,-0.35,-0.08,-0.86
24031,-0.43,-0.09,-0.80
24050,-0.49,-0.09,-0.81
24068,-0.48,-0.08,-0.89
24087,-0.43,-0.07,-0.97
24105,-0.37,-0.08,-1.00
24124,-0.41,-0.07,-0.99
24142,-0.49,-0.06,-0.96
24161,-0.53,-0.06,-0.91
24179,-0.55,-0.07,-0.91
24198,-0.53,-0.06,-0.95
24216,-0.45,-0.05,-0.96
24235,-0.36,-0.06,-0.95
24253,-0.35,-0.07,-0.94
24272,-0.38,-0.06,-0.94
24290,-0.41,-0.08,-0.91
24309,-0.40,-0.09,-0.89
24327,-0.39,-0.10,-0.89
24346,-0.38,-0.10,-0.85
24364,-0.39,-0.12,-0.77
24383,-0.43,-0.11,-0.75
24401,-0.47,-0.10,-0.80
24420,-0.44,-0.10,-0.83
24438,-0.36,-0.11,-0.82
24457,-0.32,-0.13,-0.81
24475,-0.36,-0.11,-0.85
24494,-0.41,-0.09,-0.89
24512,-0.41,-0.08,-0.91
24531,-0.38,-0.09,-0.89
24549,-0.40,-0.10,-0.86
24568,-0.44,-0.09,-0.87
24586,-0.45,-0.09,-0.86
24605,-0.43,-0.09,-0.86
24623,-0.41,-0.09,-0.88
24642,-0.40,-0.08,-0.92
24660,-0.38,-0.07,-0.94
24679,-0.35,-0.06,-0.96
24697,-0.35,-0.07,-0.93
24716,-0.38,-0.07,-0.88
24734,-0.42,-0.06,-0.86
24753,-0.44,-0.06,-0.87
24771,-0.44,-0.06,-0.91
24790,-0.41,-0.06,-0.97
24808,-0.39,-0.07,-0.99
24827,-0.39,-0.07,-0.96
24845,-0.40,-0.05,-0.97
24864,-0.38,-0.05,-0.99
24882,-0.35,-0.06,-0.97
24901,-0.38,-0.07,-0.90
24919,-0.42,-0.07,-0.86
24938,-0.43,-0.08,-0.85
24956,-0.43,-0.08,-0.88
24975,-0.44,-0.08,-0.89
24993,-0.48,-0.08,-0.89
25012,-0.48,-0.08,-0.87
25030,-0.45,-0.08,-0.84
25049,-0.45,-0.09,-0.85
25067,-0.50,-0.08,-0.87
25086,-0.53,-0.08,-0.88
25104,-0.54,-0.07,-0.89
25123,-0.54,-0.06,-0.88
25141,-0.51,-0.06,-0.88
25160,-0.49,-0.06,-0.88
25178,-0.49,-0.06,-0.88
25197,-0.52,-0.05,-0.89
25215,-0.57,-0.03,-0.94
25234,-0.60,-0.04,-0.97
25252,-0.61,-0.03,-0.98
25271,-0.60,-0.04,-0.92
25289,-0.64,-0.04,-0.90
25308,-0.69,-0.03,-0.92
25326,-0.74,-0.03,-0.92
25345,-0.81,-0.02,-0.86
25363,-0.89,-0.01,-0.81
25382,-0.99,0.02,-0.80
25400,-1.09,0.04,-0.82
25419,-1.18,0.07,-0.86
25437,-1.25,0.09,-0.84
25456,-1.29,0.10,-0.76
25474,-1.37,0.12,-0.69
25493,-1.51,0.16,-0.64
25511,-1.69,0.23,-0.63
25530,-1.86,0.31,-0.61
25548,-1.97,0.43,-0.57
25567,-2.02,0.56,-0.44
25585,-2.09,0.67,-0.30
25604,-2.14,0.83,-0.19
25622,-2.11,0.96,-0.12
25641,-1.95,1.12,-0.18
25659,-1.74,1.30,-0.22
25678,-1.56,1.49,-0.08
25696,-1.49,1.70,0.12
25715,-1.09,1.91,0.13
25733,-0.32,1.96,0.03
25752,0.41,1.91,-0.23
25770,0.85,1.73,-0.39
25789,0.97,1.64,-0.45
25807,0.91,1.72,-0.52
25826,0.93,1.83,-0.74
25844,1.20,1.87,-1.07
25863,1.50,2.21,-1.32
25881,1.84,1.82,-1.58
25900,2.16,1.81,-2.04
25918,2.57,1.50,-2.35
25937,2.67,1.22,-2.51
25955,2.29,0.97,-2.27
25974,1.53,0.87,-1.71
25992,0.91,0.81,-1.37
26011,0.65,0.72,-1.29
26029,0.65,0.58,-1.31
26048,0.59,0.51,-1.27
26066,0.48,0.43,-1.10
26085,0.34,0.37,-0.90
26103,0.17,0.33,-0.69
26122,0.09,0.31,-0.69
26140,0.08,0.28,-0.82
26159,0.03,0.25,-1.02
26177,-0.04,0.24,-1.14
26196,-0.05,0.18,-1.08
26214,-0.07,0.15,-1.06
26233,-0.08,0.14,-1.05
26251,-0.09,0.14,-1.07
26270,-0.16,0.15,-1.06
26288,-0.24,0.18,-1.08
26307,-0.25,0.20,-1.07
26325,-0.17,0.15,-1.01
26344,-0.06,0.12,-1.03
26362,0.00,0.08,-1.01
26381,-0.03,0.08,-1.00
26399,-0.09,0.07,-0.95
26418,-0.12,0.05,-0.90
26436,-0.12,0.05,-0.85
26455,-0.12,0.03,-0.80
26473,-0.15,0.04,-0.81
26492,-0.14,0.04,-0.86
26510,-0.11,0.04,-0.90
26529,-0.07,0.05,-0.90
26547,-0.01,0.05,-0.90
26566,0.02,0.06,-0.96
26584,-0.04,0.06,-0.98
26603,-0.14,0.08,-1.01
26621,-0.16,0.08,-1.00
26640,-0.12,0.07,-1.00
26658,-0.06,0.06,-0.99
26677,-0.04,0.06,-0.98
26695,-0.10,0.07,-0.96
26714,-0.16,0.08,-0.94
26732,-0.19,0.10,-0.95
26751,-0.16,0.10,-0.99
26769,-0.12,0.09,-1.01
26788,-0.12,0.09,-1.00
26806,-0.15,0.09,-0.98
26825,-0.14,0.09,-0.99
26843,-0.12,0.08,-0.95
26862,-0.12,0.08,-0.91
26880,-0.09,0.10,-0.91
26899,-0.03,0.10,-0.92
26917,-0.06,0.11,-0.93
26936,-0.12,0.12,-0.94
26954,-0.15,0.12,-0.95
26973,-0.09,0.11,-0.94
26991,-0.03,0.11,-0.94
27010,-0.02,0.10,-0.95
27028,-0.05,0.11,-0.97
27047,-0.08,0.12,-0.97
27065,-0.06,0.13,-0.96
27084,0.01,0.12,-0.90
27102,0.04,0.14,-0.87
27121,0.06,0.17,-0.95
27139,0.10,0.20,-1.08
27158,0.14,0.25,-1.17
27176,0.21,0.31,-1.20
27195,0.32,0.39,-1.24
27213,0.49,0.46,-1.31
27232,0.68,0.53,-1.41
27250,0.81,0.57,-1.48
27269,0.84,0.62,-1.50
27287,0.78,0.68,-1.51
27306,0.77,0.75,-1.53
27324,0.85,0.79,-1.56
27343,0.96,0.82,-1.54
27361,1.09,0.88,-1.49
27380,1.20,0.93,-1.47
27398,1.27,0.98,-1.46
27417,1.26,1.01,-1.35
27435,1.20,1.06,-1.18
27454,1.13,1.12,-1.04
27472,1.14,1.15,-0.97
27491,1.22,1.17,-0.93
27509,1.20,1.19,-0.83
27528,1.03,1.31,-0.65
27546,0.83,1.40,-0.43
27565,0.60,1.44,-0.19
27583,0.26,1.43,-0.14
27602,-0.18,1.53,-0.32
27620,-0.50,1.46,-0.40
27639,-0.74,1.40,-0.40
27657,-0.99,1.36,-0.36
27676,-1.22,1.33,-0.31
27694,-1.40,1.21,-0.22
27713,-1.55,1.07,-0.14
27731,-1.69,1.00,-0.32
27750,-1.73,0.87,-0.68
27768,-1.76,0.91,-0.97
27787,-1.80,0.57,-0.99
27805,-1.94,0.50,-0.79
27824,-2.07,0.57,-0.92
27842,-2.02,0.41,-0.79
27861,-1.96,0.41,-0.80
27879,-1.87,0.33,-0.80
27898,-1.77,0.26,-0.86
27916,-1.65,0.23,-0.99
27935,-1.51,0.13,-0.95
27953,-1.33,0.10,-0.85
27972,-1.09,0.03,-0.72
27990,-0.92,-0.01,-0.68
28009,-0.80,-0.02,-0.75
28027,-0.68,-0.04,-0.82
28046,-0.60,-0.06,-0.85
28064,-0.56,-0.07,-0.79
28083,-0.54,-0.09,-0.71
28101,-0.51,-0.11,-0.67
28120,-0.50,-0.14,-0.67
28138,-0.46,-0.13,-0.72
28157,-0.34,-0.14,-0.76
28175,-0.24,-0.15,-0.81
28194,-0.24,-0.14,-0.84
28212,-0.31,-0.12,-0.85
28231,-0.37,-0.11,-0.87
28249,-0.40,-0.11,-0.89
28268,-0.39,-0.11,-0.89
28286,-0.37,-0.11,-0.89
28305,-0.39,-0.10,-0.87
28323,-0.39,-0.10,-0.85
28342,-0.39,-0.09,-0.89
28360,-0.40,-0.08,-0.93
28379,-0.41,-0.08,-0.95
28397,-0.43,-0.07,-0.96
28416,-0.40,-0.08,-0.94
28434,-0.37,-0.09,-0.94
28453,-0.36,-0.08,-0.96
28471,-0.36,-0.08,-0.97
28490,-0.36,-0.09,-0.94
28508,-0.38,-0.09,-0.90
28527,-0.38,-0.09,-0.88
28545,-0.38,-0.10,-0.92
28564,-0.38,-0.10,-0.92
28582,-0.37,-0.11,-0.88
28601,-0.39,-0.12,-0.84
28619,-0.39,-0.11,-0.86
28638,-0.36,-0.12,-0.89
28656,-0.35,-0.12,-0.88
28675,-0.39,-0.12,-0.86
28693,-0.44,-0.11,-0.84
28712,-0.43,-0.11,-0.84
28730,-0.38,-0.11,-0.86
28749,-0.36,-0.12,-0.88
28767,-0.36,-0.11,-0.88
28786,-0.36,-0.11,-0.91
28804,-0.36,-0.11,-0.90
28823,-0.40,-0.11,-0.87
28841,-0.44,-0.10,-0.84
28860,-0.45,-0.10,-0.84
28878,-0.46,-0.10,-0.87
28897,-0.46,-0.10,-0.87
28915,-0.43,-0.08,-0.87
28934,-0.36,-0.09,-0.90
28952,-0.33,-0.09,-0.93
28971,-0.35,-0.09,-0.92
28989,-0.41,-0.09,-0.87
29008,-0.47,-0.08,-0.85
29026,-0.47,-0.08,-0.86
29045,-0.46,-0.09,-0.86
29063,-0.44,-0.08,-0.85
29082,-0.44,-0.08,-0.87
29100,-0.45,-0.07,-0.90
29119,-0.44,-0.06,-0.94
29137,-0.40,-0.06,-0.97
29156,-0.37,-0.07,-0.95
29174,-0.39,-0.07,-0.92
29193,-0.42,-0.07,-0.91
29211,-0.41,-0.06,-0.92
29230,-0.36,-0.07,-0.92
29248,-0.36,-0.06,-0.93
29267,-0.37,-0.06,-0.96
29285,-0.37,-0.07,-0.97
29304,-0.39,-0.07,-0.93
29322,-0.40,-0.07,-0.88
29341,-0.40,-0.08,-0.88
29359,-0.38,-0.08,-0.93
29378,-0.39,-0.08,-0.96
29396,-0.42,-0.07,-0.92
29415,-0.45,-0.06,-0.87
29433,-0.48,-0.05,-0.88
29452,-0.56,-0.03,-0.92
29470,-0.66,-0.01,-0.96
29489,-0.75,-0.00,-0.97
29507,-0.83,0.01,-0.96
29526,-0.91,0.02,-0.96
29544,-1.00,0.02,-0.93
29563,-1.14,0.05,-0.92
29581,-1.31,0.09,-0.90
29600,-1.46,0.12,-0.84
29618,-1.60,0.16,-0.76
29637,-1.75,0.20,-0.73
29655,-1.89,0.25,-0.73
29674,-1.99,0.33,-0.71
29692,-2.04,0.42,-0.70
29711,-2.02,0.48,-0.66
29729,-1.95,0.56,-0.57
29748,-1.83,0.66,-0.36
29766,-1.70,0.71,-0.11
29785,-1.69,0.81,0.08
29803,-1.81,0.98,0.10
29822,-1.82,1.25,-0.02
29840,-1.45,1.45,-0.01
29859,-0.73,1.47,0.06
29877,-0.05,1.40,-0.12
29896,0.40,1.34,-0.48
29914,0.61,1.29,-0.80
29933,0.83,1.29,-0.84
29951,1.12,1.26,-0.92
29970,1.32,1.12,-1.15
29988,1.29,1.03,-1.41
30007,1.09,1.10,-1.47
30025,0.97,0.82,-1.27
30044,0.97,0.99,-1.44
30062,1.17,0.90,-1.64
30081,1.20,0.81,-1.92
30099,1.07,0.69,-2.00
30118,0.87,0.62,-1.81
30136,0.74,0.52,-1.42
30155,0.60,0.45,-1.14
30173,0.43,0.40,-1.06
30192,0.27,0.39,-1.16
30210,0.18,0.37,-1.30
30229,0.16,0.34,-1.39
30247,0.16,0.31,-1.38
30266,0.13,0.29,-1.26
30284,0.09,0.24,-1.09
30303,0.04,0.20,-1.04
30321,-0.01,0.17,-1.02
30340,-0.05,0.15,-1.00
30358,-0.07,0.15,-1.02
30377,-0.05,0.13,-1.03
30395,-0.04,0.11,-1.05
30414,-0.10,0.09,-1.10
30432,-0.17,0.08,-1.12
30451,-0.19,0.05,-1.08
30469,-0.19,0.04,-1.00
30488,-0.16,0.02,-0.93
30506,-0.14,0.01,-0.92
30525,-0.12,0.02,-0.98
30543,-0.11,0.02,-1.06
30562,-0.14,0.02,-1.06
30580,-0.19,0.02,-0.99
30599,-0.22,0.02,-0.93
30617,-0.21,0.01,-0.92
30636,-0.18,0.01,-0.93
30654,-0.16,0.00,-0.93
30673,-0.17,-0.00,-0.92
30691,-0.19,0.00,-0.92
30710,-0.17,0.01,-0.93
30728,-0.11,0.00,-0.95
30747,-0.08,-0.01,-0.96
30765,-0.10,-0.00,-0.98
30784,-0.13,0.00,-0.98
30802,-0.14,-0.00,-0.97
30821,-0.15,0.01,-0.97
30839,-0.14,0.01,-0.97
30858,-0.14,0.00,-0.96
30876,-0.14,0.01,-0.96
30895,-0.12,0.01,-0.96
30913,-0.12,0.01,-0.95
30932,-0.15,0.02,-0.94
30950,-0.17,0.02,-0.96
30969,-0.16,0.02,-0.97
30987,-0.14,0.01,-0.98
31006,-0.13,0.02,-1.00
31024,-0.14,0.02,-1.01
31043,-0.16,0.03,-0.98
31061,-0.19,0.03,-0.92
31080,-0.19,0.03,-0.89
31098,-0.17,0.03,-0.93
31117,-0.14,0.03,-0.96
31135,-0.16,0.03,-0.91
31154,-0.20,0.03,-0.84
31172,-0.21,0.04,-0.89
31191,-0.15,0.04,-1.01
31209,-0.11,0.03,-1.10
31228,-0.11,0.05,-1.11
31246,-0.10,0.04,-1.06
31265,-0.09,0.04,-1.01
31283,-0.10,0.03,-0.98
31302,-0.14,0.04,-0.99
31320,-0.16,0.04,-0.97
31339,-0.14,0.04,-0.94
31357,-0.10,0.04,-0.91
31376,-0.09,0.05,-0.94
31394,-0.07,0.06,-1.02
31413,-0.05,0.06,-1.05
31431,-0.04,0.07,-1.02
31450,-0.03,0.07,-0.96
31468,-0.02,0.08,-0.96
31487,0.00,0.11,-1.05
31505,0.07,0.14,-1.11
31524,0.14,0.18,-1.13
31542,0.21,0.22,-1.14
31561,0.30,0.27,-1.18
31579,0.39,0.29,-1.22
31598,0.41,0.34,-1.31
31616,0.44,0.39,-1.39
31635,0.54,0.42,-1.41
31653,0.70,0.45,-1.39
31672,0.83,0.47,-1.37
31690,0.91,0.52,-1.39
31709,0.98,0.57,-1.42
31727,1.06,0.64,-1.45
31746,1.20,0.68,-1.49
31764,1.30,0.77,-1.52
31783,1.32,0.86,-1.43
31801,1.26,0.92,-1.06
31820,1.02,0.99,-0.75
31838,0.73,1.09,-0.77
31857,0.61,1.14,-1.04
31875,0.59,1.14,-1.20
31894,0.42,1.16,-1.22
31912,0.14,1.18,-1.16
31931,-0.07,1.17,-1.10
31949,-0.15,1.12,-0.95
31968,-0.14,1.03,-0.51
31986,-0.28,0.95,-0.00
32005,-0.55,0.84,0.14
32023,-0.76,0.85,-0.35
32042,-0.75,0.73,-0.95
32060,-0.73,0.54,-1.22
32079,-0.93,0.74,-1.28
32097,-1.11,0.64,-0.72
32116,-1.30,0.54,-0.41
32134,-1.44,0.46,-0.44
32153,-1.45,0.40,-0.67
32171,-1.48,0.33,-0.80
32190,-1.56,0.28,-0.93
32208,-1.66,0.23,-1.01
32227,-1.73,0.23,-1.07
32245,-1.70,0.17,-1.03
32264,-1.51,0.12,-1.00
32282,-1.29,0.05,-0.97
32301,-1.19,0.01,-0.96
32319,-1.14,-0.02,-0.93
32338,-1.06,-0.05,-0.87
32356,-0.91,-0.09,-0.82
32375,-0.76,-0.12,-0.82
32393,-0.62,-0.14,-0.82
32412,-0.52,-0.17,-0.79
32430,-0.47,-0.20,-0.73
32449,-0.46,-0.22,-0.69
32467,-0.45,-0.22,-0.71
32486,-0.34,-0.21,-0.79
32504,-0.17,-0.23,-0.86
32523,-0.03,-0.24,-0.91
32541,0.01,-0.24,-0.89
32560,-0.02,-0.24,-0.86
32578,-0.07,-0.23,-0.87
32597,-0.11,-0.21,-0.91
32615,-0.15,-0.20,-0.94
32634,-0.22,-0.18,-0.92
32652,-0.29,-0.18,-0.87
32671,-0.34,-0.16,-0.88
32689,-0.33,-0.15,-0.98
32708,-0.25,-0.14,-1.08
32726,-0.21,-0.15,-1.10
32745,-0.23,-0.14,-1.07
32763,-0.29,-0.14,-1.06
32782,-0.32,-0.13,-1.07
32800,-0.27,-0.13,-1.06
32819,-0.22,-0.15,-1.03
32837,-0.24,-0.15,-1.03
32856,-0.28,-0.15,-1.02
32874,-0.29,-0.16,-0.98
32893,-0.30,-0.17,-0.89
32911,-0.32,-0.19,-0.84
32930,-0.34,-0.19,-0.86
32948,-0.30,-0.19,-0.88
32967,-0.20,-0.21,-0.88
32985,-0.13,-0.21,-0.86
33004,-0.13,-0.21,-0.85
33022,-0.12,-0.21,-0.90
33041,-0.12,-0.21,-0.94
33059,-0.14,-0.20,-0.92
33078,-0.18,-0.20,-0.87
33096,-0.20,-0.20,-0.87
33115,-0.21,-0.19,-0.90
33133,-0.21,-0.19,-0.91
33152,-0.22,-0.19,-0.89
33170,-0.24,-0.19,-0.86
33189,-0.27,-0.17,-0.87
33207,-0.28,-0.17,-0.92
33226,-0.27,-0.16,-0.95
33244,-0.28,-0.15,-1.00
33263,-0.27,-0.14,-1.03
33281,-0.25,-0.15,-1.01
33300,-0.28,-0.14,-0.99
33318,-0.33,-0.12,-0.98
33337,-0.36,-0.12,-0.98
33355,-0.39,-0.11,-1.00
33374,-0.41,-0.11,-1.01
33392,-0.42,-0.11,-1.00
33411,-0.42,-0.12,-0.99
33429,-0.43,-0.11,-0.98
33448,-0.47,-0.10,-1.01
33466,-0.51,-0.10,-1.04
33485,-0.55,-0.09,-1.04
33503,-0.61,-0.09,-0.97
33522,-0.70,-0.09,-0.93
33540,-0.78,-0.06,-0.94
33559,-0.83,-0.04,-0.98
33577,-0.88,-0.02,-1.03
33596,-0.93,0.00,-1.02
33614,-0.98,0.03,-1.02
33633,-1.03,0.06,-1.06
33651,-1.08,0.07,-1.07
33670,-1.09,0.11,-1.04
33688,-1.09,0.13,-0.98
33707,-1.14,0.17,-0.95
33725,-1.19,0.21,-0.96
33744,-1.16,0.23,-0.95
33762,-1.14,0.25,-0.92
33781,-1.25,0.31,-0.90
33799,-1.42,0.37,-0.90
33818,-1.54,0.49,-0.90
33836,-1.48,0.57,-0.79
33855,-1.28,0.62,-0.56
33873,-1.04,0.66,-0.36
33892,-0.78,0.68,-0.18
33910,-0.57,0.68,-0.14
33929,-0.51,0.68,-0.24
33947,-0.54,0.74,-0.39
33966,-0.41,0.82,-0.39
33984,-0.05,0.87,-0.31
34003,0.35,0.90,-0.33
34021,0.71,0.89,-0.52
34040,1.00,0.86,-0.83
34058,1.19,0.83,-1.14
34077,1.30,0.90,-1.30
34095,1.51,0.62,-1.30
34114,1.63,0.78,-1.48
34132,1.79,0.69,-1.75
34151,1.80,0.62,-1.96
34169,1.63,0.53,-1.97
34188,1.37,0.45,-1.78
34206,1.13,0.36,-1.50
34225,0.97,0.29,-1.25
34243,0.88,0.21,-1.06
34262,0.79,0.16,-0.97
34280,0.64,0.15,-1.03
34299,0.52,0.15,-1.19
34317,0.44,0.12,-1.21
34336,0.34,0.10,-1.11
34354,0.25,0.06,-0.98
34373,0.19,0.03,-0.92
34391,0.11,0.00,-0.92
34410,0.01,0.01,-0.96
34428,-0.02,0.01,-1.01
34447,0.04,-0.00,-1.10
34465,0.12,-0.04,-1.13
34484,0.14,-0.04,-1.09
34502,0.10,-0.04,-1.04
34521,0.05,-0.05,-1.06
34539,0.01,-0.05,-1.08
34558,-0.00,-0.05,-1.03
34576,0.01,-0.05,-1.01
34595,0.02,-0.05,-1.02
34613,0.01,-0.04,-1.03
34632,-0.01,-0.05,-1.00
34650,-0.02,-0.06,-0.95
34669,0.00,-0.07,-0.94
34687,0.03,-0.07,-0.97
34706,0.07,-0.08,-0.98
34724,0.06,-0.08,-0.94
34743,-0.01,-0.07,-0.89
34761,-0.06,-0.06,-0.90
34780,-0.04,-0.05,-0.96
34798,0.03,-0.06,-1.00
34817,0.07,-0.05,-1.01
34835,0.06,-0.05,-0.99
34854,0.05,-0.05,-0.98
34872,0.04,-0.05,-0.98
34891,0.06,-0.05,-1.01
34909,0.08,-0.06,-0.99
34928,0.06,-0.05,-0.98
34946,0.05,-0.04,-1.00
34965,0.02,-0.03,-1.04
34983,0.02,-0.02,-1.05
35002,0.05,-0.02,-1.04
35020,0.04,-0.02,-1.03
35039,0.03,-0.02,-1.02
35057,0.04,-0.03,-1.01
35076,0.05,-0.05,-0.95
35094,0.02,-0.05,-0.90
35113,-0.00,-0.05,-0.91
35131,0.03,-0.06,-0.97
35150,0.04,-0.06,-0.97
35168,-0.01,-0.05,-0.94
35187,-0.03,-0.05,-0.94
35205,-0.02,-0.06,-0.94
35224,-0.03,-0.06,-0.93
35242,0.00,-0.06,-0.94
35261,0.04,-0.07,-0.94
35279,-0.00,-0.06,-0.94
35298,-0.06,-0.05,-0.92
35316,-0.07,-0.05,-0.93
35335,-0.04,-0.04,-0.97
35353,-0.01,-0.04,-0.98
35372,-0.01,-0.02,-0.98
35390,0.01,-0.04,-0.96
35409,0.02,-0.02,-1.00
35427,0.08,-0.01,-0.99
35446,0.15,-0.02,-0.99
35464,0.17,-0.01,-1.05
35483,0.16,0.01,-1.09
35501,0.16,0.02,-1.07
35520,0.16,0.03,-1.03
35538,0.18,0.03,-1.03
35557,0.22,0.04,-1.06
35575,0.26,0.05,-1.07
35594,0.30,0.05,-1.07
35612,0.32,0.06,-1.09
35631,0.34,0.08,-1.14
35649,0.38,0.10,-1.16
35668,0.44,0.13,-1.19
35686,0.54,0.16,-1.23
35705,0.63,0.18,-1.27
35723,0.70,0.19,-1.28
35742,0.73,0.19,-1.27
35760,0.75,0.21,-1.24
35779,0.77,0.21,-1.18
35797,0.79,0.23,-1.13
35816,0.81,0.25,-1.09
35834,0.84,0.26,-1.05
35853,0.88,0.29,-1.07
35871,0.90,0.34,-1.13
35890,0.92,0.37,-1.06
35908,0.90,0.41,-0.97
35927,0.86,0.45,-0.96
35945,0.79,0.49,-1.03
35964,0.64,0.54,-1.11
35982,0.46,0.57,-1.11
36001,0.32,0.60,-1.06
36019,0.26,0.60,-0.92
36038,0.21,0.59,-0.82
36056,0.16,0.59,-0.78
36075,0.13,0.60,-0.83
36093,0.11,0.59,-0.93
36112,0.01,0.60,-1.02
36130,-0.14,0.60,-0.99
36149,-0.28,0.59,-0.92
36167,-0.39,0.57,-0.87
36186,-0.45,0.55,-0.93
36204,-0.55,0.49,-0.99
36223,-0.71,0.46,-0.95
36241,-0.81,0.42,-0.90
36260,-0.81,0.35,-0.83
36278,-0.80,0.27,-0.81
36297,-0.83,0.23,-0.77
36315,-0.96,0.24,-0.84
36334,-1.01,0.25,-0.94
36352,-1.03,0.16,-0.82
36371,-1.11,0.13,-0.84
36389,-1.16,0.07,-0.84
36408,-1.18,0.01,-0.87
36426,-1.12,-0.04,-0.92
36445,-1.03,-0.06,-0.88
36463,-0.95,-0.08,-0.85
36482,-0.92,-0.10,-0.86
36500,-0.91,-0.11,-0.86
36519,-0.88,-0.14,-0.83
36537,-0.81,-0.17,-0.76
36556,-0.74,-0.19,-0.75
36574,-0.67,-0.21,-0.75
36593,-0.60,-0.22,-0.73
36611,-0.55,-0.23,-0.74
36630,-0.52,-0.23,-0.77
36648,-0.51,-0.22,-0.83
36667,-0.45,-0.23,-0.85
36685,-0.36,-0.24,-0.86
36704,-0.29,-0.23,-0.87
36722,-0.26,-0.23,-0.87
36741,-0.25,-0.23,-0.89
36759,-0.26,-0.23,-0.89
36778,-0.25,-0.22,-0.87
36796,-0.24,-0.21,-0.89
36815,-0.24,-0.20,-0.97
36833,-0.24,-0.18,-1.00
36852,-0.22,-0.18,-0.96
36870,-0.23,-0.17,-1.00
36889,-0.24,-0.17,-1.04
36907,-0.24,-0.18,-1.03
36926,-0.24,-0.18,-0.98
36944,-0.27,-0.19,-0.95
36963,-0.26,-0.19,-0.95
36981,-0.26,-0.19,-1.01
37000,-0.25,-0.20,-1.01
37018,-0.24,-0.21,-0.93
37037,-0.25,-0.21,-0.87
37055,-0.27,-0.21,-0.86
37074,-0.27,-0.21,-0.86
37092,-0.23,-0.22,-0.86
37111,-0.22,-0.21,-0.88
37129,-0.25,-0.21,-0.93
37148,-0.27,-0.20,-0.93
37166,-0.26,-0.21,-0.90
37185,-0.24,-0.21,-0.90
37203,-0.23,-0.20,-0.97
37222,-0.23,-0.20,-0.99
37240,-0.24,-0.19,-0.96
37259,-0.24,-0.19,-0.93
37277,-0.24,-0.19,-0.93
37296,-0.22,-0.19,-0.94
37314,-0.17,-0.19,-0.94
37333,-0.14,-0.19,-0.97
37351,-0.16,-0.19,-0.99
37370,-0.23,-0.19,-0.97
37388,-0.29,-0.19,-0.93
37407,-0.29,-0.18,-0.90
37425,-0.27,-0.18,-0.91
37444,-0.25,-0.19,-0.91
37462,-0.26,-0.19,-0.91
37481,-0.27,-0.18,-0.93
37499,-0.24,-0.17,-0.95
37518,-0.22,-0.18,-0.97
37536,-0.22,-0.18,-0.99
37555,-0.25,-0.17,-0.99
37573,-0.27,-0.18,-0.95
37592,-0.27,-0.17,-0.93
37610,-0.26,-0.18,-0.90
37629,-0.26,-0.18,-0.88
37647,-0.25,-0.18,-0.87
37666,-0.27,-0.18,-0.89
37684,-0.30,-0.17,-0.92
37703,-0.33,-0.17,-0.92
37721,-0.34,-0.17,-0.91
37740,-0.36,-0.17,-0.92
37758,-0.39,-0.17,-0.94
37777,-0.42,-0.16,-0.96
37795,-0.44,-0.16,-0.92
37814,-0.49,-0.15,-0.87
37832,-0.56,-0.15,-0.85
37851,-0.63,-0.13,-0.86
37869,-0.67,-0.12,-0.89
37888,-0.68,-0.12,-0.90
37906,-0.68,-0.11,-0.91
37925,-0.71,-0.10,-0.94
37943,-0.76,-0.09,-0.97
37962,-0.79,-0.07,-0.98
37980,-0.79,-0.04,-0.94
37999,-0.78,-0.03,-0.88
38017,-0.80,-0.00,-0.90
38036,-0.85,0.03,-0.99
38054,-0.90,0.05,-1.06
38073,-0.92,0.08,-1.04
38091,-0.88,0.10,-0.99
38110,-0.83,0.13,-0.94
38128,-0.83,0.16,-0.92
38147,-0.94,0.19,-0.94
38165,-1.08,0.27,-0.98
38184,-1.15,0.34,-0.92
38202,-1.10,0.40,-0.81
38221,-0.98,0.48,-0.74
38239,-0.86,0.51,-0.72
38258,-0.81,0.55,-0.77
38276,-0.79,0.59,-0.74
38295,-0.67,0.63,-0.65
38313,-0.51,0.61,-0.56
38332,-0.46,0.57,-0.55
38350,-0.46,0.58,-0.63
38369,-0.31,0.61,-0.69
38387,0.08,0.64,-0.73
38406,0.54,0.57,-0.72
38424,0.80,0.47,-0.74
38443,0.81,0.51,-0.80
38461,0.69,0.77,-0.85
38480,0.64,0.68,-0.81
38498,0.85,0.74,-1.06
38517,1.30,0.65,-1.34
38535,1.67,0.64,-1.74
38554,1.91,0.56,-2.01
38572,1.90,0.46,-2.01
38591,1.69,0.34,-1.70
38609,1.38,0.23,-1.33
38628,1.10,0.17,-1.12
38646,0.96,0.13,-1.08
38665,0.94,0.09,-1.12
38683,0.90,0.06,-1.07
38702,0.71,0.03,-0.92
38720,0.48,0.05,-0.86
38739,0.33,0.05,-0.86
38757,0.28,0.04,-0.88
38776,0.28,0.02,-0.87
38794,0.23,0.01,-0.85
38813,0.16,-0.00,-0.85
38831,0.11,-0.01,-0.92
38850,0.11,-0.02,-1.04
38868,0.11,-0.04,-1.09
38887,0.07,-0.06,-1.09
38905,0.01,-0.05,-1.10
38924,-0.02,-0.07,-1.12
38942,-0.03,-0.05,-1.13
38961,-0.02,-0.04,-1.15
38979,-0.01,-0.04,-1.13
38998,-0.02,-0.05,-1.10
39016,-0.06,-0.05,-1.08
39035,-0.09,-0.05,-1.09
39053,-0.09,-0.06,-1.08
39072,-0.07,-0.07,-1.01
39090,-0.08,-0.08,-0.94
39109,-0.05,-0.09,-0.91
39127,0.02,-0.10,-0.91
39146,0.08,-0.11,-0.89
39164,0.07,-0.11,-0.84
39183,0.03,-0.10,-0.83
39201,0.01,-0.10,-0.87
39220,0.05,-0.09,-0.93
39238,0.08,-0.09,-0.95
39257,0.08,-0.09,-0.96
39275,0.07,-0.08,-0.97
39294,0.08,-0.07,-0.96
39312,0.10,-0.06,-0.97
39331,0.13,-0.07,-1.00
39349,0.15,-0.07,-1.05
39368,0.14,-0.07,-1.05
39386,0.09,-0.07,-1.02
39405,0.05,-0.07,-0.99
39423,0.04,-0.07,-0.96
39442,0.04,-0.06,-0.95
39460,0.07,-0.08,-0.93
39479,0.09,-0.08,-0.90
39497,0.06,-0.08,-0.96
39516,0.03,-0.06,-1.02
39534,0.02,-0.07,-0.99
39553,0.01,-0.06,-0.97
39571,0.01,-0.07,-0.97
39590,0.02,-0.08,-0.99
39608,0.02,-0.07,-1.00
39627,-0.01,-0.08,-0.97
39645,-0.03,-0.07,-0.94
39664,0.01,-0.06,-0.94
39682,0.06,-0.08,-0.90
39701,0.10,-0.07,-0.92
39719,0.13,-0.07,-0.95
39738,0.15,-0.07,-0.94
39756,0.15,-0.05,-0.97
39775,0.18,-0.06,-0.98
39793,0.21,-0.05,-1.03
39812,0.26,-0.04,-1.05
39830,0.27,-0.04,-1.01
39849,0.24,-0.03,-0.97
39867,0.23,-0.00,-1.00
39886,0.28,0.00,-1.04
39904,0.35,0.02,-1.10
39923,0.42,0.05,-1.14
39941,0.50,0.06,-1.14
39960,0.58,0.08,-1.15
39978,0.66,0.10,-1.16
39997,0.72,0.12,-1.19
40015,0.78,0.16,-1.28
40034,0.89,0.19,-1.35
40052,1.04,0.22,-1.40
40071,1.16,0.24,-1.39
40089,1.23,0.28,-1.37
40108,1.24,0.31,-1.32
40126,1.22,0.37,-1.28
40145,1.14,0.39,-1.19
40163,1.02,0.44,-1.11
40182,0.94,0.48,-1.06
40200,0.91,0.49,-1.05
40219,0.88,0.53,-1.01
40237,0.87,0.57,-0.93
40256,0.85,0.60,-0.86
40274,0.66,0.64,-0.87
40293,0.41,0.68,-0.84
40311,0.28,0.66,-0.70
40330,0.24,0.62,-0.56
40348,0.12,0.59,-0.50
40367,-0.04,0.60,-0.55
40385,-0.11,0.59,-0.62
40404,-0.12,0.58,-0.70
40422,-0.17,0.57,-0.68
40441,-0.30,0.55,-0.66
40459,-0.49,0.54,-0.70
40478,-0.69,0.51,-0.76
40496,-0.76,0.49,-0.71
40515,-0.75,0.46,-0.66
40533,-0.81,0.61,-0.81
40552,-0.91,0.41,-0.91
40570,-1.09,0.46,-1.02
40589,-1.21,0.46,-1.14
40607,-1.25,0.30,-1.18
40626,-1.32,0.31,-1.05
40644,-1.37,0.25,-0.97
40663,-1.38,0.23,-1.04
40681,-1.31,0.21,-1.07
40700,-1.22,0.13,-1.03
40718,-1.19,0.12,-1.02
40737,-1.12,0.07,-1.00
40755,-1.02,0.02,-0.95
40774,-0.89,-0.02,-0.96
40792,-0.74,-0.05,-0.96
40811,-0.62,-0.08,-0.93
40829,-0.56,-0.11,-0.87
40848,-0.57,-0.11,-0.82
40866,-0.54,-0.12,-0.81
40885,-0.45,-0.14,-0.82
40903,-0.36,-0.16,-0.86
40922,-0.32,-0.16,-0.89
40940,-0.32,-0.15,-0.92
40959,-0.28,-0.16,-0.88
40977,-0.22,-0.16,-0.87
40996,-0.17,-0.15,-0.91
41014,-0.10,-0.15,-0.95
41033,-0.06,-0.15,-0.94
41051,-0.10,-0.15,-0.96
41070,-0.19,-0.13,-1.02
41088,-0.22,-0.13,-0.99
41107,-0.20,-0.13,-0.94
41125,-0.18,-0.13,-0.96
41144,-0.20,-0.13,-1.01
41162,-0.22,-0.12,-1.04
41181,-0.23,-0.12,-1.04
41199,-0.21,-0.12,-1.04
41218,-0.19,-0.13,-1.02
41236,-0.17,-0.13,-1.00
41255,-0.17,-0.14,-0.97
41273,-0.20,-0.14,-0.96
41292,-0.20,-0.15,-0.93
41310,-0.20,-0.15,-0.90
41329,-0.23,-0.16,-0.89
41347,-0.26,-0.16,-0.91
41366,-0.28,-0.16,-0.92
41384,-0.27,-0.16,-0.92
41403,-0.22,-0.16,-0.91
41421,-0.16,-0.17,-0.91
41440,-0.15,-0.17,-0.93
41458,-0.18,-0.17,-0.93
41477,-0.22,-0.16,-0.90
41495,-0.23,-0.16,-0.89
41514,-0.22,-0.16,-0.90
41532,-0.22,-0.17,-0.89
41551,-0.26,-0.15,-0.90
41569,-0.26,-0.15,-0.91
41588,-0.23,-0.15,-0.93
41606,-0.19,-0.15,-0.94
41625,-0.19,-0.14,-0.95
41643,-0.24,-0.14,-0.97
41662,-0.29,-0.13,-0.97
41680,-0.31,-0.12,-0.98
41699,-0.29,-0.12,-0.97
41717,-0.27,-0.12,-0.95
41736,-0.26,-0.12,-0.94
41754,-0.26,-0.12,-0.97
41773,-0.25,-0.12,-1.01
41791,-0.24,-0.12,-1.01
41810,-0.23,-0.13,-0.98
41828,-0.24,-0.13,-0.97
41847,-0.26,-0.13,-0.97
41865,-0.27,-0.13,-0.96
41884,-0.29,-0.13,-0.91
41902,-0.31,-0.14,-0.90
41921,-0.31,-0.13,-0.95
41939,-0.32,-0.13,-0.97
41958,-0.33,-0.13,-0.95
41976,-0.32,-0.12,-0.94
41995,-0.31,-0.12,-0.96
42013,-0.34,-0.13,-0.97
42032,-0.40,-0.12,-0.95
42050,-0.47,-0.11,-0.92
42069,-0.52,-0.10,-0.93
42087,-0.57,-0.09,-0.95
42106,-0.61,-0.08,-0.97
42124,-0.68,-0.06,-0.98
42143,-0.76,-0.04,-1.01
42161,-0.85,-0.02,-1.05
42180,-0.95,0.01,-1.11
42198,-1.06,0.05,-1.18
42217,-1.06,0.08,-1.23
42235,-0.94,0.08,-1.15
42254,-0.77,0.07,-0.97
42272,-0.65,0.07,-0.84
42291,-0.67,0.07,-0.86
42309,-0.76,0.10,-0.97
42328,-0.81,0.13,-1.00
42346,-0.83,0.15,-0.95
42365,-0.87,0.17,-0.93
42383,-0.97,0.19,-0.93
42402,-1.06,0.25,-0.94
42420,-1.06,0.32,-0.88
42439,-0.98,0.35,-0.83
42457,-0.94,0.38,-0.80
42476,-0.97,0.44,-0.78
42494,-0.94,0.50,-0.72
42513,-0.81,0.53,-0.61
42531,-0.67,0.56,-0.53
42550,-0.58,0.60,-0.56
42568,-0.48,0.68,-0.65
42587,-0.22,0.72,-0.61
42605,0.16,0.70,-0.46
42624,0.49,0.68,-0.41
42642,0.81,0.65,-0.45
42661,1.11,0.63,-0.60
42679,1.36,0.58,-0.90
42698,1.54,0.45,-1.26
42716,1.54,0.58,-1.46
42735,1.62,0.54,-1.73
42753,1.70,0.51,-1.84
42772,1.72,0.43,-1.72
42790,1.62,0.35,-1.41
42809,1.45,0.30,-1.23
42827,1.37,0.22,-1.17
42846,1.28,0.15,-1.14
42864,1.12,0.10,-1.07
42883,0.89,0.06,-0.96
42901,0.64,0.05,-0.84
42920,0.47,0.02,-0.71
42938,0.36,-0.00,-0.63
42957,0.31,-0.01,-0.69
42975,0.27,-0.02,-0.85
42994,0.24,-0.05,-1.00
43012,0.20,-0.06,-1.03
43031,0.15,-0.09,-0.97
43049,0.13,-0.10,-0.92
43068,0.17,-0.11,-0.95
43086,0.24,-0.13,-1.03
43105,0.25,-0.13,-1.12
43123,0.18,-0.13,-1.19
43142,0.07,-0.11,-1.18
43160,0.02,-0.11,-1.13
43179,0.02,-0.10,-1.11
43197,0.03,-0.11,-1.10
43216,0.04,-0.11,-1.04
43234,0.06,-0.12,-0.97
43253,0.05,-0.13,-0.94
43271,0.06,-0.13,-0.94
43290,0.06,-0.14,-0.93
43308,0.07,-0.13,-0.93
43327,0.09,-0.13,-0.93
43345,0.10,-0.13,-0.93
43364,0.10,-0.12,-0.95
43382,0.11,-0.13,-0.94
43401,0.13,-0.13,-0.90
43419,0.11,-0.14,-0.86
43438,0.09,-0.14,-0.89
43456,0.08,-0.13,-0.96
43475,0.10,-0.13,-1.00
43493,0.13,-0.12,-0.96
43512,0.15,-0.12,-0.95
43530,0.18,-0.12,-0.99
43549,0.19,-0.12,-1.02
43567,0.15,-0.12,-1.00
43586,0.08,-0.12,-0.95
43604,0.06,-0.12,-0.95
43623,0.08,-0.13,-0.98
43641,0.11,-0.13,-0.99
43660,0.11,-0.13,-0.95
43678,0.12,-0.12,-0.94
43697,0.15,-0.11,-0.95
43715,0.19,-0.11,-0.97
43734,0.19,-0.11,-0.98
43752,0.17,-0.11,-0.98
43771,0.12,-0.12,-0.94
43789,0.09,-0.12,-0.90
43808,0.09,-0.11,-0.91
43826,0.14,-0.11,-0.96
43845,0.18,-0.11,-0.99
43863,0.18,-0.10,-1.01
43882,0.16,-0.10,-1.02
43900,0.15,-0.10,-0.99
43919,0.14,-0.10,-0.95
43937,0.13,-0.09,-0.95
43956,0.15,-0.10,-0.97
43974,0.14,-0.10,-0.94
43993,0.12,-0.10,-0.92
44011,0.11,-0.10,-0.95
44030,0.11,-0.09,-0.99
44048,0.14,-0.09,-1.02
44067,0.18,-0.09,-1.04
44085,0.23,-0.09,-1.04
44104,0.25,-0.08,-1.00
44122,0.25,-0.08,-0.94
44141,0.24,-0.07,-0.92
44159,0.28,-0.05,-0.96
44178,0.34,-0.03,-0.99
44196,0.42,-0.02,-0.97
44215,0.50,0.00,-0.99
44233,0.58,0.03,-1.07
44252,0.65,0.06,-1.17
44270,0.76,0.08,-1.20
44289,0.89,0.11,-1.18
44307,1.00,0.13,-1.17
44326,1.07,0.16,-1.18
44344,1.14,0.21,-1.18
44363,1.19,0.23,-1.10
44381,1.17,0.27,-1.05
44400,1.11,0.31,-1.08
44418,1.12,0.33,-1.12
44437,1.13,0.37,-1.07
44455,1.03,0.40,-1.04
44474,0.84,0.47,-1.00
44492,0.74,0.53,-0.99
44511,0.79,0.57,-1.00
44529,0.87,0.61,-1.01
44548,0.88,0.67,-1.00
44566,0.77,0.73,-0.95
44585,0.54,0.75,-0.90
44603,0.25,0.76,-0.88
44622,0.09,0.74,-0.83
44640,0.06,0.74,-0.80
44659,0.09,0.74,-0.76
44677,0.05,0.74,-0.75
44696,-0.13,0.75,-0.83
44714,-0.39,0.75,-0.92
44733,-0.64,0.70,-0.93
44751,-0.79,0.55,-0.71
44770,-0.87,0.55,-0.67
44788,-0.84,0.51,-0.51
44807,-0.81,0.57,-0.51
44825,-0.77,0.48,-0.72
44844,-0.90,0.49,-0.88
44862,-1.12,0.38,-1.04
44881,-1.36,0.34,-1.16
44899,-1.51,0.38,-1.11
44918,-1.53,0.27,-0.87
44936,-1.47,0.23,-0.84
44955,-1.37,0.17,-0.91
44973,-1.35,0.13,-1.06
44992,-1.37,0.14,-1.19
45010,-1.27,0.10,-1.16
45029,-1.08,0.03,-1.04
45047,-0.93,-0.01,-0.99
45066,-0.87,-0.04,-0.97
45084,-0.81,-0.07,-0.94
45103,-0.72,-0.08,-0.87
45121,-0.58,-0.13,-0.81
45140,-0.46,-0.15,-0.75
45158,-0.42,-0.16,-0.79
45177,-0.41,-0.15,-0.88
45195,-0.32,-0.15,-0.93
45214,-0.22,-0.18,-0.88
45232,-0.21,-0.18,-0.84
45251,-0.19,-0.18,-0.80
45269,-0.14,-0.19,-0.80
45288,-0.11,-0.18,-0.88
45306,-0.11,-0.17,-0.98
45325,-0.12,-0.16,-1.04
45343,-0.12,-0.16,-1.01
45362,-0.15,-0.16,-1.00
45380,-0.19,-0.14,-1.02
45399,-0.17,-0.14,-1.02
45417,-0.18,-0.14,-1.03
45436,-0.20,-0.12,-1.06
45454,-0.17,-0.12,-1.05
45473,-0.15,-0.13,-1.00
45491,-0.19,-0.13,-1.02
45510,-0.22,-0.13,-1.06
45528,-0.23,-0.14,-1.02
45547,-0.22,-0.15,-0.96
45565,-0.18,-0.16,-0.94
45584,-0.15,-0.16,-0.96
45602,-0.17,-0.17,-0.96
45621,-0.22,-0.17,-0.93
45639,-0.24,-0.17,-0.90
45658,-0.23,-0.18,-0.89
45676,-0.19,-0.18,-0.90
45695,-0.15,-0.19,-0.90
45713,-0.16,-0.20,-0.88
45732,-0.20,-0.18,-0.88
45750,-0.22,-0.18,-0.88
45769,-0.24,-0.19,-0.90
45787,-0.28,-0.18,-0.91
45806,-0.26,-0.17,-0.91
45824,-0.21,-0.18,-0.88
45843,-0.16,-0.18,-0.86
45861,-0.17,-0.17,-0.91
45880,-0.19,-0.16,-0.97
45898,-0.22,-0.16,-1.00
45917,-0.25,-0.15,-0.96
45935,-0.29,-0.15,-0.92
45954,-0.32,-0.15,-0.92
45972,-0.34,-0.14,-0.96
45991,-0.35,-0.15,-0.95
46009,-0.34,-0.14,-0.93
46028,-0.29,-0.13,-0.93
46046,-0.24,-0.14,-0.97
46065,-0.24,-0.13,-1.00
46083,-0.27,-0.13,-1.01
46102,-0.32,-0.12,-0.98
46120,-0.35,-0.13,-0.93
46139,-0.36,-0.12,-0.90
46157,-0.37,-0.12,-0.92
46176,-0.39,-0.12,-0.94
46194,-0.43,-0.11,-0.95
46213,-0.48,-0.10,-0.98
46231,-0.51,-0.10,-0.97
46250,-0.54,-0.09,-0.95
46268,-0.60,-0.08,-0.94
46287,-0.66,-0.06,-0.95
46305,-0.72,-0.05,-0.94
46324,-0.79,-0.03,-0.92
46342,-0.88,-0.00,-0.94
46361,-0.97,0.03,-0.97
46379,-1.04,0.07,-0.99
46398,-1.09,0.09,-0.98
46416,-1.14,0.12,-0.99
46435,-1.23,0.18,-1.05
46453,-1.37,0.25,-1.10
46472,-1.51,0.33,-1.10
46490,-1.58,0.42,-1.07
46509,-1.58,0.47,-0.98
46527,-1.58,0.54,-0.87
46546,-1.57,0.61,-0.79
46564,-1.45,0.69,-0.67
46583,-1.27,0.75,-0.57
46601,-1.07,0.80,-0.52
46620,-0.88,0.84,-0.50
46638,-0.78,0.89,-0.52
46657,-0.70,0.93,-0.52
46675,-0.48,0.97,-0.37
46694,-0.17,1.04,-0.29
46712,0.15,1.00,-0.45
46731,0.41,0.96,-0.69
46749,0.55,0.93,-0.80
46768,0.65,0.94,-0.82
46786,0.81,0.94,-0.89
46805,1.09,0.96,-1.10
46823,1.50,1.01,-1.32
46842,1.79,0.81,-1.49
46860,1.89,0.64,-1.68
46879,1.80,0.45,-1.51
46897,1.46,0.37,-1.26
46916,1.12,0.33,-1.07
46934,0.97,0.30,-1.06
46953,0.98,0.27,-1.16
46971,1.00,0.20,-1.15
46990,0.89,0.20,-1.07
47008,0.74,0.19,-1.03
47027,0.63,0.17,-1.11
47045,0.59,0.15,-1.23
47064,0.59,0.12,-1.25
47082,0.59,0.10,-1.20
47101,0.56,0.09,-1.16
47119,0.51,0.08,-1.13
47138,0.42,0.08,-1.16
47156,0.35,0.07,-1.17
47175,0.29,0.05,-1.14
47193,0.23,0.04,-1.12
47212,0.18,0.02,-1.11
47230,0.10,0.02,-1.10
47249,0.05,0.03,-1.08
47267,0.06,0.03,-1.05
47286,0.10,0.03,-1.06
47304,0.14,0.00,-1.04
47323,0.10,0.00,-1.00
47341,0.06,-0.00,-1.01
47360,0.06,-0.01,-1.02
47378,0.07,-0.02,-0.98
47397,0.08,-0.01,-0.94
47415,0.10,-0.00,-0.96
47434,0.13,-0.00,-0.99
47452,0.13,-0.01,-0.98
47471,0.10,-0.00,-0.98
47489,0.09,-0.01,-0.95
47508,0.09,-0.01,-0.96
47526,0.09,-0.01,-1.00
47545,0.10,0.00,-1.04
47563,0.13,-0.00,-1.02
47582,0.13,-0.00,-1.00
47600,0.12,-0.01,-1.00
47619,0.09,-0.01,-1.01
47637,0.09,-0.00,-1.02
47656,0.10,-0.01,-1.00
47674,0.08,-0.01,-1.00
47693,0.05,-0.01,-0.99
47711,0.05,-0.01,-0.98
47730,0.06,-0.01,-0.98
47748,0.08,-0.01,-0.95
47767,0.08,-0.01,-0.94
47785,0.08,-0.02,-0.99
47804,0.09,-0.03,-1.02
47822,0.09,-0.03,-0.99
47841,0.06,-0.02,-0.93
47859,0.04,-0.02,-0.90
47878,0.02,-0.01,-0.91
47896,0.02,-0.01,-0.94
47915,0.05,-0.01,-0.96
47933,0.08,-0.01,-0.94
47952,0.09,-0.01,-0.95
47970,0.09,-0.01,-1.00
47989,0.10,-0.00,-1.03
48007,0.13,0.00,-1.01
48026,0.15,0.02,-1.01
48044,0.18,0.02,-1.00
48063,0.20,0.03,-1.03
48081,0.21,0.05,-1.10
48100,0.26,0.05,-1.14
48118,0.30,0.04,-1.10
48137,0.33,0.05,-1.06
48155,0.36,0.05,-1.05
48174,0.42,0.05,-1.07
48192,0.47,0.06,-1.12
48211,0.49,0.06,-1.14
48229,0.48,0.06,-1.13
48248,0.45,0.06,-1.09
48266,0.42,0.06,-1.03
48285,0.40,0.07,-1.01
48303,0.40,0.09,-1.05
48322,0.46,0.10,-1.11
48340,0.54,0.12,-1.16
48359,0.62,0.14,-1.17
48377,0.71,0.16,-1.20
48396,0.78,0.18,-1.24
48414,0.80,0.22,-1.28
48433,0.79,0.25,-1.29
48451,0.81,0.28,-1.26
48470,0.81,0.31,-1.26
48488,0.78,0.34,-1.22
48507,0.73,0.38,-1.17
48525,0.70,0.41,-1.14
48544,0.72,0.43,-1.12
48562,0.74,0.45,-1.07
48581,0.70,0.49,-1.01
48599,0.66,0.52,-1.00
48618,0.59,0.54,-1.00
48636,0.45,0.56,-1.00
48655,0.31,0.57,-0.96
48673,0.21,0.56,-0.89
48692,0.16,0.55,-0.77
48710,0.12,0.53,-0.69
48729,0.09,0.52,-0.72
48747,0.12,0.53,-0.83
48766,0.08,0.52,-0.88
48784,-0.17,0.54,-0.84
48803,-0.46,0.56,-0.73
48821,-0.67,0.51,-0.42
48840,-0.87,0.42,-0.36
48858,-1.02,0.45,-0.50
48877,-1.08,0.37,-0.60
48895,-1.11,0.33,-0.74
48914,-1.20,0.30,-0.83
48932,-1.43,0.20,-0.86
48951,-1.67,0.17,-0.85
48969,-1.73,0.14,-0.82
48988,-1.60,0.08,-0.77
49006,-1.39,0.01,-0.72
49025,-1.30,-0.03,-0.79
49043,-1.30,-0.05,-0.87
49062,-1.27,-0.07,-0.87
49080,-1.16,-0.11,-0.83
49099,-0.97,-0.15,-0.78
49117,-0.80,-0.18,-0.77
49136,-0.71,-0.19,-0.80
49154,-0.64,-0.19,-0.85
49173,-0.60,-0.22,-0.86
49191,-0.54,-0.23,-0.85
49210,-0.43,-0.24,-0.82
49228,-0.35,-0.25,-0.82
49247,-0.32,-0.23,-0.87
49265,-0.31,-0.22,-0.91
49284,-0.27,-0.22,-0.89
49302,-0.23,-0.23,-0.89
49321,-0.20,-0.22,-0.91
49339,-0.16,-0.22,-0.89
49358,-0.18,-0.23,-0.93
49376,-0.25,-0.20,-1.01
49395,-0.24,-0.20,-1.01
49413,-0.19,-0.20,-0.98
49432,-0.20,-0.19,-0.98
49450,-0.25,-0.19,-1.00
49469,-0.30,-0.19,-1.00
49487,-0.33,-0.19,-1.00
49506,-0.33,-0.19,-1.00
49524,-0.28,-0.19,-0.97
49543,-0.19,-0.21,-0.93
49561,-0.18,-0.21,-0.99
49580,-0.24,-0.20,-1.04
49598,-0.26,-0.20,-1.02
49617,-0.24,-0.21,-0.96
49635,-0.20,-0.22,-0.93
49654,-0.18,-0.22,-0.93
49672,-0.19,-0.22,-0.91
49691,-0.20,-0.22,-0.86
49709,-0.20,-0.22,-0.86
49728,-0.18,-0.23,-0.91
49746,-0.16,-0.24,-0.92
49765,-0.19,-0.24,-0.88
49783,-0.25,-0.23,-0.87
49802,-0.24,-0.23,-0.90
49820,-0.23,-0.23,-0.92
49839,-0.25,-0.23,-0.91
49857,-0.27,-0.22,-0.90
49876,-0.28,-0.22,-0.91
49894,-0.28,-0.21,-0.92
49913,-0.28,-0.21,-0.93
49931,-0.26,-0.21,-0.93
49950,-0.21,-0.21,-0.92
49968,-0.18,-0.21,-0.93
49987,-0.19,-0.20,-0.96
50005,-0.22,-0.20,-0.96
50024,-0.25,-0.20,-0.96
50042,-0.26,-0.20,-0.93
50061,-0.26,-0.20,-0.91
50079,-0.27,-0.20,-0.88
50098,-0.29,-0.20,-0.90
50116,-0.30,-0.20,-0.93
50135,-0.28,-0.20,-0.93
50153,-0.26,-0.20,-0.93
50172,-0.25,-0.20,-0.93
50190,-0.27,-0.19,-0.94
50209,-0.31,-0.19,-0.92
50227,-0.35,-0.18,-0.91
50246,-0.34,-0.18,-0.89
50264,-0.30,-0.18,-0.91
50283,-0.28,-0.17,-0.98
50301,-0.30,-0.17,-1.03
50320,-0.33,-0.17,-1.00
50338,-0.35,-0.17,-0.93
50357,-0.38,-0.17,-0.88
50375,-0.40,-0.16,-0.90
50394,-0.45,-0.16,-0.93
50412,-0.54,-0.14,-0.92
50431,-0.62,-0.14,-0.87
50449,-0.71,-0.13,-0.87
50468,-0.78,-0.10,-0.92
50486,-0.85,-0.09,-0.95
50505,-0.91,-0.07,-0.96
50523,-0.96,-0.05,-0.94
50542,-1.02,-0.04,-0.90
50560,-1.10,-0.01,-0.86
50579,-1.18,0.02,-0.85
50597,-1.28,0.07,-0.90
50616,-1.36,0.12,-0.89
50634,-1.44,0.18,-0.85
50653,-1.51,0.25,-0.85
50671,-1.51,0.31,-0.80
50690,-1.47,0.37,-0.76
50708,-1.43,0.43,-0.73
50727,-1.35,0.49,-0.71
50745,-1.20,0.53,-0.60
50764,-1.09,0.57,-0.49
50782,-1.07,0.62,-0.39
50801,-1.03,0.71,-0.35
50819,-0.87,0.75,-0.29
50838,-0.75,0.77,-0.26
50856,-0.71,0.80,-0.20
50875,-0.67,0.89,-0.24
50893,-0.48,1.01,-0.42
50912,-0.04,1.09,-0.62
50930,0.49,1.11,-0.77
50949,0.88,1.06,-1.02
50967,1.16,1.03,-1.31
50986,1.29,0.96,-1.46
51004,1.23,0.93,-1.58
51023,1.26,0.68,-1.69
51041,1.29,0.89,-1.69
51060,1.50,0.83,-1.83
51078,1.68,0.73,-2.04
51097,1.69,0.59,-2.11
51115,1.45,0.49,-1.89
51134,1.07,0.42,-1.51
51152,0.77,0.36,-1.20
51171,0.59,0.29,-0.99
51189,0.45,0.22,-0.86
51208,0.31,0.18,-0.81
51226,0.16,0.14,-0.79
51245,0.02,0.11,-0.78
51263,-0.07,0.09,-0.84
51282,-0.08,0.09,-0.94
51300,-0.01,0.08,-1.02
51319,0.10,0.07,-1.09
51337,0.16,0.06,-1.17
51356,0.11,0.06,-1.25
51374,0.00,0.08,-1.28
51393,-0.07,0.07,-1.24
51411,-0.09,0.06,-1.17
51430,-0.09,0.05,-1.11
51448,-0.11,0.05,-1.12
51467,-0.12,0.04,-1.13
51485,-0.13,0.03,-1.08
51504,-0.15,0.02,-0.99
51522,-0.15,0.01,-0.92
51541,-0.14,0.00,-0.90
51559,-0.11,-0.00,-0.95
51578,-0.08,-0.00,-0.98
51596,-0.06,-0.01,-0.94
51615,-0.04,-0.03,-0.87
51633,-0.06,-0.04,-0.84
51652,-0.08,-0.03,-0.87
51670,-0.09,-0.03,-0.87
51689,-0.11,-0.03,-0.87
51707,-0.13,-0.02,-0.90
51726,-0.12,-0.00,-0.97
51744,-0.06,0.00,-1.02
51763,-0.01,0.00,-1.04
51781,-0.01,0.01,-1.06
51800,-0.06,0.01,-1.06
51818,-0.10,0.02,-1.04
51837,-0.11,0.01,-1.00
51855,-0.09,0.02,-0.97
51874,-0.07,0.01,-0.95
51892,-0.08,0.02,-0.95
51911,-0.10,0.03,-1.00
51929,-0.09,0.03,-1.06
51948,-0.05,0.02,-1.05
51966,-0.03,0.01,-1.01
51985,-0.02,0.01,-0.97
52003,-0.02,0.01,-0.98
52022,-0.04,0.02,-0.97
52040,-0.07,0.02,-0.96
52059,-0.07,0.02,-0.95
52077,-0.05,0.01,-0.94
52096,-0.04,0.01,-0.95
52114,-0.04,0.01,-0.98
52133,-0.04,0.02,-1.01
52151,-0.03,0.02,-1.01
52170,-0.03,0.02,-0.98
52188,-0.04,0.02,-0.95
52207,-0.05,0.02,-0.95
52225,-0.04,0.03,-0.99
52244,-0.00,0.02,-1.01
52262,0.01,0.03,-0.99
52281,0.03,0.04,-0.98
52299,0.05,0.05,-1.00
52318,0.09,0.06,-1.05
52336,0.11,0.07,-1.07
52355,0.12,0.09,-1.08
52373,0.14,0.11,-1.10
52392,0.17,0.12,-1.14
52410,0.21,0.14,-1.16
52429,0.25,0.16,-1.16
52447,0.29,0.18,-1.16
52466,0.36,0.21,-1.18
52484,0.47,0.24,-1.22
52503,0.59,0.28,-1.27
52521,0.70,0.33,-1.35
52540,0.81,0.37,-1.43
52558,0.88,0.42,-1.51
52577,0.95,0.46,-1.52
52595,0.99,0.52,-1.49
52614,1.02,0.56,-1.46
52632,1.06,0.58,-1.31
52651,1.03,0.63,-1.28
52669,0.95,0.70,-1.28
52688,0.89,0.76,-1.24
52706,0.90,0.79,-1.10
52725,0.90,0.85,-0.97
52743,0.82,0.92,-0.95
52762,0.70,1.00,-0.95
52780,0.54,1.04,-0.86
52799,0.30,1.07,-0.84
52817,0.08,1.09,-0.91
52836,-0.06,1.04,-0.88
52854,-0.18,1.02,-0.78
52873,-0.23,0.98,-0.61
52891,-0.32,0.93,-0.49
52910,-0.53,0.90,-0.40
52928,-0.82,0.87,-0.40
52947,-1.08,0.84,-0.25
52965,-1.30,0.72,-0.28
52984,-1.41,0.64,-0.60
53002,-1.42,0.52,-0.58
53021,-1.43,0.49,-0.70
53039,-1.45,0.43,-0.79
53058,-1.48,0.32,-0.85
53076,-1.61,0.34,-0.88
53095,-1.72,0.32,-0.92
53113,-1.66,0.26,-0.89
53132,-1.46,0.18,-0.81
53150,-1.29,0.12,-0.79
53169,-1.26,0.09,-0.89
53187,-1.27,0.07,-0.94
53206,-1.23,0.04,-0.90
53224,-1.11,-0.01,-0.81
53243,-0.95,-0.03,-0.73
53261,-0.85,-0.13,-0.76
53280,-0.85,-0.10,-0.85
53298,-0.79,-0.10,-0.83
53317,-0.70,-0.11,-0.78
53335,-0.59,-0.11,-0.76
53354,-0.47,-0.12,-0.78
53372,-0.38,-0.12,-0.85
53391,-0.35,-0.11,-0.91
53409,-0.32,-0.12,-0.88
53428,-0.28,-0.13,-0.81
53446,-0.29,-0.15,-0.80
53465,-0.33,-0.14,-0.86
53483,-0.35,-0.13,-0.96
53502,-0.34,-0.13,-0.97
53520,-0.38,-0.13,-0.90
53539,-0.43,-0.11,-0.84
53557,-0.43,-0.10,-0.89
53576,-0.36,-0.11,-0.95
53594,-0.29,-0.09,-1.01
53613,-0.24,-0.10,-1.00
53631,-0.25,-0.10,-0.99
53650,-0.31,-0.09,-1.03
53668,-0.38,-0.09,-1.04
53687,-0.45,-0.08,-0.99
53705,-0.45,-0.08,-0.94
53724,-0.37,-0.09,-0.92
53742,-0.31,-0.09,-0.94
53761,-0.28,-0.09,-0.99
53779,-0.26,-0.10,-1.01
53798,-0.23,-0.10,-1.00
53816,-0.23,-0.12,-0.97
53835,-0.27,-0.12,-0.93
53853,-0.32,-0.12,-0.92
53872,-0.34,-0.12,-0.92
53890,-0.33,-0.12,-0.89
53909,-0.31,-0.13,-0.85
53927,-0.28,-0.13,-0.86
53946,-0.28,-0.14,-0.90
53964,-0.31,-0.13,-0.94
53983,-0.31,-0.14,-0.90
54001,-0.34,-0.14,-0.85
54020,-0.38,-0.13,-0.88
54038,-0.39,-0.12,-0.93
54057,-0.38,-0.12,-0.91
54075,-0.37,-0.12,-0.88
54094,-0.34,-0.11,-0.88
54112,-0.32,-0.11,-0.92
54131,-0.31,-0.11,-0.94
54149,-0.31,-0.11,-0.93
54168,-0.32,-0.11,-0.91
54186,-0.32,-0.11,-0.94
54205,-0.32,-0.11,-0.96
54223,-0.31,-0.11,-0.97
54242,-0.32,-0.10,-0.95
54260,-0.34,-0.11,-0.90
54279,-0.39,-0.10,-0.88
54297,-0.42,-0.10,-0.91
54316,-0.41,-0.10,-0.96
54334,-0.38,-0.11,-0.97
54353,-0.36,-0.11,-0.93
54371,-0.37,-0.10,-0.90
54390,-0.40,-0.10,-0.93
54408,-0.42,-0.10,-0.94
54427,-0.46,-0.10,-0.90
54445,-0.49,-0.09,-0.88
54464,-0.49,-0.09,-0.90
54482,-0.49,-0.09,-0.95
54501,-0.48,-0.08,-0.96
54519,-0.50,-0.09,-0.93
54538,-0.55,-0.08,-0.92
54556,-0.57,-0.08,-0.92
54575,-0.62,-0.08,-0.89
54593,-0.70,-0.07,-0.87
54612,-0.82,-0.05,-0.86
54630,-0.96,0.01,-0.90
54649,-1.06,0.05,-0.97
54667,-1.12,0.08,-1.02
54686,-1.16,0.12,-1.03
54704,-1.23,0.17,-1.00
54723,-1.34,0.21,-0.99
54741,-1.45,0.26,-0.98
54760,-1.52,0.31,-0.95
54778,-1.58,0.37,-0.89
54797,-1.64,0.44,-0.84
54815,-1.70,0.53,-0.77
54834,-1.73,0.62,-0.69
54852,-1.73,0.74,-0.59
54871,-1.68,0.85,-0.50
54889,-1.52,0.95,-0.41
54908,-1.29,1.03,-0.39
54926,-1.08,1.08,-0.38
54945,-0.96,1.12,-0.35
54963,-0.76,1.20,-0.29
54982,-0.41,1.22,-0.13
55000,-0.07,1.21,0.03
55019,0.11,1.25,-0.05
55037,0.21,1.32,-0.38
55056,0.40,1.36,-0.77
55074,0.71,1.38,-1.07
55093,1.05,1.39,-1.27
55111,1.38,1.38,-1.49
55130,1.66,1.36,-1.69
55148,1.84,1.25,-1.97
55167,2.05,0.84,-2.25
55185,2.01,0.91,-2.28
55204,1.90,0.78,-2.25
55222,1.70,0.63,-2.00
55241,1.32,0.55,-1.66
55259,0.99,0.48,-1.45
55278,0.76,0.39,-1.24
55296,0.55,0.28,-1.01
55315,0.33,0.23,-0.88
55333,0.20,0.18,-0.86
55352,0.18,0.12,-0.95
55370,0.18,0.11,-1.04
55389,0.11,0.11,-1.03
55407,0.02,0.12,-0.92
55426,-0.03,0.13,-0.89
55444,0.02,0.12,-1.01
55463,0.09,0.10,-1.16
55481,0.11,0.05,-1.18
55500,0.03,0.05,-1.15
55518,-0.02,0.04,-1.13
55537,-0.02,0.01,-1.12
55555,-0.03,0.01,-1.11
55574,0.00,0.00,-1.09
55592,0.05,-0.00,-1.02
55611,0.06,-0.01,-1.01
55629,0.01,0.00,-1.00
55648,-0.05,0.01,-0.99
55666,-0.07,0.01,-1.01
55685,-0.05,-0.01,-1.00
55703,-0.07,-0.00,-0.99
55722,-0.10,0.00,-0.99
55740,-0.10,-0.00,-0.96
55759,-0.07,-0.01,-0.93
55777,-0.01,-0.01,-0.90
55796,0.04,-0.01,-0.93
55814,0.06,-0.02,-0.95
55833,0.00,-0.02,-0.95
55851,-0.06,-0.01,-0.95
55870,-0.06,-0.02,-1.00
55888,-0.05,-0.02,-1.04
55907,-0.05,-0.02,-1.05
55925,-0.03,-0.02,-1.02
55944,-0.01,-0.02,-1.00
55962,-0.00,-0.02,-1.02
55981,-0.03,-0.02,-1.02
55999,-0.07,-0.02,-0.99
56018,-0.10,-0.03,-0.97
56036,-0.11,-0.04,-0.97
56055,-0.12,-0.05,-0.97
56073,-0.13,-0.06,-0.95
56092,-0.12,-0.06,-0.91
56110,-0.07,-0.06,-0.89
56129,-0.04,-0.06,-0.88
56147,-0.05,-0.05,-0.89
56166,-0.09,-0.04,-0.92
56184,-0.11,-0.04,-0.94
56203,-0.11,-0.04,-0.94
56221,-0.11,-0.05,-0.91
56240,-0.12,-0.05,-0.90
56258,-0.11,-0.04,-0.92
56277,-0.09,-0.04,-0.94
56295,-0.08,-0.04,-0.92
56314,-0.07,-0.02,-0.92
56332,-0.07,-0.01,-0.95
56351,-0.07,-0.01,-0.99
56369,-0.09,-0.01,-0.98
56388,-0.11,-0.01,-0.97
56406,-0.12,-0.01,-0.99
56425,-0.11,-0.01,-1.03
56443,-0.10,-0.02,-1.03
56462,-0.12,-0.02,-1.01
56480,-0.13,-0.01,-1.00
56499,-0.12,-0.01,-0.99
56517,-0.11,-0.00,-1.00
56536,-0.11,-0.00,-0.99
56554,-0.11,0.00,-0.98
56573,-0.09,-0.01,-0.97
56591,-0.09,-0.01,-0.98
56610,-0.10,-0.02,-0.97
56628,-0.11,-0.01,-0.95
56647,-0.08,-0.01,-0.97
56665,-0.06,-0.00,-1.00
56684,-0.05,0.00,-1.03
56702,-0.07,0.01,-1.01
56721,-0.09,0.01,-0.98
56739,-0.07,0.01,-1.00
56758,-0.03,0.00,-1.00
56776,-0.03,-0.00,-1.01
56795,-0.05,-0.00,-1.01
56813,-0.06,-0.00,-1.01
56832,-0.07,-0.01,-1.01
56850,-0.07,-0.01,-0.99
56869,-0.07,-0.00,-0.99
56887,-0.06,-0.00,-0.97
56906,-0.05,-0.01,-0.94
56924,-0.06,-0.01,-0.94
56943,-0.08,-0.00,-0.97
56961,-0.09,0.00,-1.02
56980,-0.08,-0.00,-1.02
56998,-0.07,-0.00,-0.98
57017,-0.06,-0.01,-0.94
57035,-0.05,-0.01,-0.94
57054,-0.04,-0.01,-0.98
57072,-0.04,-0.00,-0.99
57091,-0.06,-0.00,-0.97
57109,-0.06,-0.00,-0.95
57128,-0.05,-0.00,-0.97
57146,-0.03,-0.01,-1.01
57165,-0.04,-0.01,-1.01
57183,-0.06,-0.00,-0.99
57202,-0.07,-0.00,-0.97
57220,-0.08,-0.00,-0.97
57239,-0.07,-0.00,-0.98
57257,-0.06,-0.00,-0.98
57276,-0.05,-0.01,-0.94
57294,-0.08,-0.01,-0.91
57313,-0.10,-0.01,-0.94
57331,-0.08,-0.01,-0.99
57350,-0.04,-0.01,-1.01
57368,-0.03,-0.01,-0.99
57387,-0.04,-0.01,-0.98
57405,-0.05,-0.01,-1.00
57424,-0.06,-0.01,-1.02
57442,-0.07,-0.00,-1.01
57461,-0.06,-0.01,-0.97
57479,-0.08,-0.02,-0.93
57498,-0.09,-0.01,-0.94
57516,-0.08,-0.02,-0.95
57535,-0.07,-0.02,-0.97
57553,-0.05,-0.03,-0.97
57572,-0.04,-0.03,-0.98
57590,-0.04,-0.02,-0.97
57609,-0.04,-0.02,-0.97
57627,-0.04,-0.02,-0.97
57646,-0.05,-0.01,-0.97
57664,-0.06,-0.02,-0.94
57683,-0.07,-0.01,-0.93
57701,-0.09,-0.01,-0.95
57720,-0.09,-0.01,-0.97
57738,-0.08,-0.01,-0.98
57757,-0.07,-0.01,-0.98
57775,-0.07,-0.01,-0.96
57794,-0.06,-0.00,-0.96
57812,-0.05,0.00,-0.99
57831,-0.04,0.00,-1.03
57849,-0.04,0.00,-1.03
57868,-0.07,0.00,-1.00
57886,-0.09,0.00,-0.98
57905,-0.08,0.00,-0.99
57923,-0.04,-0.00,-1.01
57942,-0.00,-0.00,-1.02
57960,-0.01,-0.01,-0.99
57979,-0.05,-0.00,-0.96
57997,-0.07,-0.00,-0.95
58016,-0.06,0.00,-0.97
58034,-0.04,-0.00,-0.98
58053,-0.02,-0.01,-0.97
58071,-0.02,-0.01,-0.97
58090,-0.04,-0.01,-0.98
58108,-0.05,-0.00,-1.00
58127,-0.04,-0.00,-1.00
58145,-0.03,-0.01,-0.97
58164,-0.05,-0.00,-0.96
58182,-0.05,-0.01,-0.99
58201,-0.04,-0.01,-1.02
58219,-0.03,-0.01,-1.00
58238,-0.05,-0.01,-0.97
58256,-0.07,-0.01,-0.97
58275,-0.06,-0.01,-0.98
58293,-0.05,-0.02,-0.97
58312,-0.05,-0.02,-0.96
58330,-0.06,-0.02,-0.97
58349,-0.07,-0.02,-0.98
58367,-0.07,-0.02,-0.96
58386,-0.09,-0.02,-0.96
58404,-0.07,-0.02,-0.99
58423,-0.04,-0.03,-1.00
58441,-0.03,-0.03,-0.97
58460,-0.05,-0.03,-0.97
58478,-0.08,-0.03,-0.96
58497,-0.10,-0.02,-0.96
58515,-0.10,-0.02,-0.98
58534,-0.08,-0.03,-0.96
58552,-0.08,-0.03,-0.95
58571,-0.09,-0.02,-0.97
58589,-0.08,-0.02,-1.00
58608,-0.08,-0.02,-1.01
58626,-0.09,-0.03,-0.98
58645,-0.10,-0.03,-0.94
58663,-0.10,-0.03,-0.94
58682,-0.08,-0.03,-0.97
58700,-0.06,-0.03,-0.99
58719,-0.04,-0.04,-0.97
58737,-0.06,-0.03,-0.94
58756,-0.08,-0.03,-0.94
58774,-0.08,-0.03,-0.97
58793,-0.07,-0.02,-1.00
58811,-0.05,-0.03,-1.00
58830,-0.05,-0.03,-0.98
58848,-0.07,-0.03,-0.95
58867,-0.07,-0.03,-0.93
58885,-0.05,-0.03,-0.95
58904,-0.03,-0.03,-0.99
58922,-0.02,-0.03,-1.01
58941,-0.03,-0.03,-0.98
58959,-0.05,-0.03,-0.94
58978,-0.08,-0.03,-0.94
58996,-0.07,-0.03,-1.00
59015,-0.04,-0.03,-1.01
59033,-0.03,-0.04,-0.96
59052,-0.04,-0.03,-0.93
59070,-0.05,-0.03,-0.93
59089,-0.06,-0.03,-0.98
59107,-0.08,-0.02,-1.02
59126,-0.08,-0.03,-1.01
59144,-0.06,-0.03,-0.97
59163,-0.05,-0.03,-0.97
59181,-0.05,-0.02,-0.97
59200,-0.06,-0.02,-0.96
59218,-0.08,-0.02,-0.96
59237,-0.07,-0.02,-0.97
59255,-0.06,-0.02,-0.97
59274,-0.05,-0.02,-0.98
59292,-0.03,-0.02,-1.00
59311,-0.02,-0.03,-1.01
59329,-0.03,-0.02,-1.01
59348,-0.03,-0.03,-0.99
59366,-0.04,-0.03,-0.96
59385,-0.05,-0.03,-0.94
59403,-0.05,-0.03,-0.94
59422,-0.06,-0.03,-0.92
59440,-0.07,-0.03,-0.92
59459,-0.07,-0.02,-0.96
59477,-0.04,-0.02,-1.01
59496,-0.03,-0.03,-1.01
59514,-0.05,-0.02,-0.99
59533,-0.05,-0.02,-0.98
59551,-0.04,-0.02,-0.98
59570,-0.05,-0.02,-0.99
59588,-0.06,-0.02,-0.97
59607,-0.07,-0.02,-0.95
59625,-0.07,-0.02,-0.95
59644,-0.06,-0.02,-0.99
59662,-0.06,-0.02,-1.02
59681,-0.05,-0.01,-1.02
59699,-0.05,-0.02,-1.00
59718,-0.04,-0.02,-0.98
59736,-0.03,-0.02,-0.97
59755,-0.03,-0.03,-0.97
59773,-0.03,-0.03,-0.97
59792,-0.03,-0.03,-0.96
59810,-0.04,-0.03,-0.94
59829,-0.04,-0.04,-0.94
59847,-0.05,-0.04,-0.95
59866,-0.07,-0.03,-0.97
59884,-0.06,-0.03,-0.99
59903,-0.04,-0.04,-0.98
59921,-0.04,-0.04,-0.95
59940,-0.05,-0.04,-0.95
59958,-0.07,-0.03,-0.97
59977,-0.07,-0.04,-0.96
59995,-0.08,-0.03,-0.93
60014,-0.09,-0.03,-0.93
60032,-0.10,-0.02,-0.96
60051,-0.10,-0.02,-0.99
60069,-0.09,-0.02,-1.00
60088,-0.07,-0.02,-0.99
60106,-0.06,-0.01,-0.97
60125,-0.06,-0.01,-0.98
60143,-0.05,-0.00,-1.02
60162,-0.04,-0.00,-1.03
60180,-0.04,-0.01,-1.01
60199,-0.03,-0.01,-0.98
60217,-0.01,-0.01,-0.98
60236,0.01,-0.02,-0.99
60254,-0.00,-0.02,-0.97
60273,-0.03,-0.02,-0.94
60291,-0.03,-0.02,-0.94
60310,-0.00,-0.02,-0.98
60328,0.01,-0.02,-1.00
60347,-0.01,-0.02,-0.98
60365,-0.02,-0.02,-0.96
60384,-0.04,-0.02,-0.96
60402,-0.06,-0.01,-0.97
