timestamp,AX,AY,AZ
0,0.09,-0.27,0.97
18,0.10,-0.27,0.97
37,0.09,-0.27,0.97
55,0.08,-0.27,0.96
74,0.08,-0.28,0.96
92,0.09,-0.27,0.98
111,0.10,-0.27,0.97
129,0.10,-0.27,0.98
148,0.09,-0.27,0.98
166,0.08,-0.27,0.97
185,0.07,-0.27,0.97
203,0.08,-0.27,0.96
222,0.08,-0.27,0.97
240,0.08,-0.27,0.99
259,0.09,-0.27,0.99
277,0.10,-0.27,1.00
296,0.08,-0.27,1.00
314,0.06,-0.27,1.00
333,0.06,-0.27,0.98
351,0.07,-0.27,1.00
370,0.08,-0.27,1.02
388,0.09,-0.27,1.02
407,0.09,-0.28,1.04
425,0.08,-0.28,1.06
444,0.08,-0.28,1.06
462,0.08,-0.28,1.10
481,0.07,-0.28,1.14
499,0.06,-0.27,1.21
518,0.09,-0.26,1.31
536,0.15,-0.27,1.34
555,0.17,-0.25,1.35
573,0.15,-0.26,1.34
592,0.11,-0.27,1.33
610,0.09,-0.28,1.29
629,0.11,-0.26,1.32
647,0.15,-0.26,1.36
666,0.19,-0.26,1.40
684,0.22,-0.26,1.42
703,0.22,-0.25,1.41
721,0.21,-0.25,1.45
740,0.19,-0.26,1.53
758,0.18,-0.28,1.64
777,0.17,-0.29,1.64
795,0.16,-0.29,1.44
814,0.21,-0.28,1.27
832,0.17,-0.30,1.18
851,0.10,-0.31,1.14
869,0.07,-0.34,1.18
888,0.11,-0.37,1.14
906,0.12,-0.36,1.12
925,0.15,-0.36,1.03
943,0.12,-0.38,1.11
962,0.07,-0.39,1.18
980,0.08,-0.40,1.06
999,0.18,-0.42,0.85
1017,0.20,-0.43,0.67
1036,0.17,-0.46,0.58
1054,0.04,-0.47,0.55
1073,-0.08,-0.50,0.72
1091,-0.10,-0.56,0.85
1110,0.03,-0.54,0.70
1128,0.08,-0.54,0.55
1147,0.11,-0.55,0.39
1165,0.03,-0.53,0.40
1184,-0.01,-0.60,0.44
1202,0.01,-0.61,0.48
1221,0.05,-0.62,0.44
1239,-0.01,-0.61,0.38
1258,-0.05,-0.63,0.34
1276,-0.02,-0.64,0.32
1295,0.04,-0.64,0.23
1313,0.02,-0.64,0.11
1332,0.00,-0.64,0.11
1350,-0.00,-0.64,0.12
1369,0.02,-0.65,0.16
1387,0.01,-0.63,0.13
1406,-0.04,-0.64,0.04
1424,-0.05,-0.62,-0.15
1443,-0.04,-0.62,-0.27
1461,-0.13,-0.64,-0.26
1480,-0.16,-0.65,-0.23
1498,-0.12,-0.64,-0.23
1517,-0.11,-0.62,-0.31
1535,-0.08,-0.62,-0.44
1554,-0.05,-0.59,-0.54
1572,-0.11,-0.59,-0.57
1591,-0.19,-0.58,-0.61
1609,-0.23,-0.56,-0.76
1628,-0.29,-0.55,-0.88
1646,-0.38,-0.54,-0.99
1665,-0.35,-0.53,-1.03
1683,-0.34,-0.52,-1.15
1702,-0.38,-0.52,-1.16
1720,-0.35,-0.51,-1.19
1739,-0.34,-0.52,-1.16
1757,-0.42,-0.54,-1.08
1776,-0.44,-0.56,-1.07
1794,-0.43,-0.58,-1.08
1813,-0.45,-0.60,-1.01
1831,-0.45,-0.63,-0.95
1850,-0.43,-0.63,-0.93
1868,-0.41,-0.64,-0.94
1887,-0.40,-0.64,-0.91
1905,-0.41,-0.64,-0.95
1924,-0.37,-0.63,-0.97
1942,-0.34,-0.62,-1.00
1961,-0.35,-0.61,-1.02
1979,-0.37,-0.61,-1.04
1998,-0.37,-0.59,-1.06
2016,-0.36,-0.58,-1.08
2035,-0.35,-0.57,-1.04
2053,-0.36,-0.56,-0.99
2072,-0.34,-0.56,-0.97
2090,-0.32,-0.55,-0.96
2109,-0.34,-0.55,-0.94
2127,-0.32,-0.55,-0.89
2146,-0.32,-0.54,-0.82
2164,-0.31,-0.54,-0.73
2183,-0.26,-0.54,-0.69
2201,-0.18,-0.53,-0.71
2220,-0.15,-0.52,-0.62
2238,-0.19,-0.50,-0.50
2257,-0.22,-0.49,-0.40
2275,-0.19,-0.49,-0.33
2294,-0.17,-0.47,-0.27
2312,-0.11,-0.47,-0.17
2331,-0.02,-0.45,-0.10
2349,0.05,-0.45,-0.01
2368,0.10,-0.45,0.12
2386,0.13,-0.44,0.17
2405,0.07,-0.43,0.32
2423,0.03,-0.44,0.44
2442,-0.10,-0.45,0.52
2460,-0.17,-0.45,0.61
2479,-0.16,-0.46,0.74
2497,-0.02,-0.47,0.81
2516,0.09,-0.48,0.83
2534,0.17,-0.48,0.84
2553,0.28,-0.46,0.83
2571,0.29,-0.46,0.78
2590,0.04,-0.43,0.83
2608,-0.15,-0.43,0.88
2627,-0.19,-0.41,0.91
2645,-0.12,-0.37,0.96
2664,0.07,-0.35,1.04
2682,0.22,-0.34,1.09
2701,0.29,-0.35,1.13
2719,0.29,-0.34,1.11
2738,0.26,-0.33,1.07
2756,0.20,-0.32,1.07
2775,0.12,-0.31,1.08
2793,0.12,-0.30,1.13
2812,0.11,-0.28,1.18
2830,0.15,-0.27,1.23
2849,0.18,-0.26,1.23
2867,0.21,-0.25,1.27
2886,0.24,-0.25,1.24
2904,0.26,-0.25,1.27
2923,0.27,-0.24,1.27
2941,0.24,-0.23,1.26
2960,0.23,-0.22,1.19
2978,0.18,-0.22,1.21
2997,0.15,-0.21,1.21
3015,0.22,-0.20,1.20
3034,0.29,-0.21,1.22
3052,0.33,-0.19,1.21
3071,0.29,-0.21,1.27
3089,0.23,-0.22,1.38
3108,0.17,-0.22,1.35
3126,0.18,-0.21,1.26
3145,0.17,-0.21,1.18
3163,0.15,-0.20,1.17
3182,0.12,-0.19,1.21
3200,0.13,-0.19,1.22
3219,0.14,-0.18,1.20
3237,0.11,-0.16,1.18
3256,-0.05,-0.11,1.56
3274,0.80,-0.03,2.88
3293,0.48,-0.11,1.33
3311,-0.24,-0.16,0.49
3330,-0.23,-0.21,0.62
3348,0.13,-0.20,0.91
3367,0.34,-0.19,0.91
3385,0.14,-0.17,0.89
3404,0.06,-0.18,1.04
3422,0.03,-0.17,1.05
3441,0.01,-0.16,1.10
3459,0.02,-0.16,1.21
3478,0.06,-0.13,1.31
3496,0.13,-0.12,1.39
3515,0.22,-0.13,1.40
3533,0.21,-0.12,1.44
3552,0.23,-0.13,1.50
3570,0.23,-0.11,1.46
3589,0.25,-0.10,1.49
3607,0.27,-0.11,1.56
3626,0.28,-0.12,1.60
3644,0.28,-0.12,1.65
3663,0.29,-0.14,1.69
3681,0.30,-0.14,1.66
3700,0.29,-0.15,1.57
3718,0.26,-0.16,1.44
3737,0.22,-0.17,1.30
3755,0.19,-0.20,1.14
3774,0.08,-0.24,1.11
3792,0.01,-0.25,1.16
3811,0.03,-0.28,1.18
3829,0.13,-0.31,1.18
3848,0.17,-0.32,1.16
3866,0.12,-0.32,1.11
3885,0.09,-0.34,1.03
3903,0.03,-0.34,0.98
3922,0.03,-0.36,0.86
3940,0.10,-0.38,0.76
3959,0.09,-0.40,0.71
3977,-0.00,-0.43,0.77
3996,-0.04,-0.47,0.72
4014,-0.03,-0.48,0.66
4033,-0.03,-0.51,0.66
4051,-0.09,-0.52,0.56
4070,-0.11,-0.53,0.49
4088,-0.10,-0.54,0.53
4107,-0.05,-0.56,0.48
4125,0.01,-0.60,0.49
4144,0.06,-0.62,0.50
4162,-0.00,-0.64,0.48
4181,-0.08,-0.64,0.41
4199,-0.15,-0.66,0.42
4218,-0.11,-0.68,0.40
4236,-0.06,-0.70,0.40
4255,-0.06,-0.71,0.42
4273,-0.08,-0.71,0.36
4292,0.01,-0.73,0.34
4310,-0.03,-0.73,0.24
4329,-0.07,-0.75,0.15
4347,-0.12,-0.76,0.17
4366,-0.12,-0.77,0.13
4384,-0.12,-0.78,0.18
4403,-0.15,-0.80,0.20
4421,-0.11,-0.80,0.18
4440,-0.08,-0.80,0.13
4458,-0.04,-0.80,0.12
4477,-0.03,-0.81,0.12
4495,-0.08,-0.81,0.13
4514,-0.09,-0.82,0.09
4532,-0.05,-0.81,-0.11
4551,-0.08,-0.82,-0.20
4569,-0.11,-0.83,-0.19
4588,-0.13,-0.83,-0.12
4606,-0.07,-0.83,-0.05
4625,0.02,-0.83,-0.11
4643,0.05,-0.82,-0.20
4662,0.06,-0.81,-0.26
4680,-0.01,-0.81,-0.31
4699,-0.06,-0.80,-0.36
4717,-0.09,-0.81,-0.37
4736,-0.12,-0.83,-0.31
4754,-0.06,-0.84,-0.25
4773,-0.04,-0.83,-0.31
4791,-0.03,-0.82,-0.35
4810,-0.03,-0.81,-0.42
4828,-0.01,-0.80,-0.52
4847,-0.04,-0.78,-0.54
4865,-0.12,-0.79,-0.49
4884,-0.13,-0.79,-0.52
4902,-0.11,-0.79,-0.47
4921,-0.10,-0.79,-0.51
4939,-0.13,-0.78,-0.60
4958,-0.14,-0.78,-0.64
4976,-0.16,-0.77,-0.70
4995,-0.12,-0.77,-0.65
5013,-0.08,-0.76,-0.67
5032,-0.06,-0.75,-0.70
5050,-0.08,-0.75,-0.78
5069,-0.21,-0.76,-0.78
5087,-0.30,-0.77,-0.79
5106,-0.29,-0.77,-0.78
5124,-0.27,-0.78,-0.77
5143,-0.27,-0.78,-0.80
5161,-0.27,-0.78,-0.80
5180,-0.28,-0.78,-0.79
5198,-0.29,-0.80,-0.71
5217,-0.27,-0.81,-0.61
5235,-0.20,-0.81,-0.61
5254,-0.17,-0.81,-0.62
5272,-0.16,-0.80,-0.68
5291,-0.18,-0.78,-0.72
5309,-0.21,-0.77,-0.79
5328,-0.25,-0.75,-0.86
5346,-0.23,-0.73,-0.88
5365,-0.18,-0.71,-0.91
5383,-0.14,-0.70,-0.91
5402,-0.10,-0.69,-0.94
5420,-0.09,-0.68,-0.93
5439,-0.12,-0.67,-0.86
5457,-0.13,-0.67,-0.83
5476,-0.12,-0.67,-0.88
5494,-0.14,-0.66,-0.86
5513,-0.17,-0.66,-0.85
5531,-0.21,-0.65,-0.80
5550,-0.24,-0.66,-0.71
5568,-0.19,-0.65,-0.65
5587,-0.13,-0.66,-0.58
5605,-0.07,-0.66,-0.57
5624,-0.01,-0.66,-0.56
5642,0.05,-0.65,-0.60
5661,0.07,-0.63,-0.58
5679,-0.15,-0.61,-0.45
5698,-0.35,-0.62,-0.30
5716,-0.39,-0.63,-0.18
5735,-0.27,-0.64,-0.18
5753,-0.13,-0.63,-0.19
5772,0.01,-0.64,-0.17
5790,0.11,-0.64,-0.06
5809,0.24,-0.64,-0.00
5827,0.33,-0.62,-0.02
5846,0.22,-0.59,0.06
5864,-0.17,-0.60,0.34
5883,-0.40,-0.62,0.53
5901,-0.44,-0.65,0.62
5920,-0.29,-0.66,0.58
5938,-0.12,-0.67,0.49
5957,0.03,-0.66,0.47
5975,0.15,-0.66,0.46
5994,0.23,-0.69,0.46
6012,0.19,-0.64,0.39
6031,-0.17,-0.61,0.45
6049,-0.45,-0.59,0.63
6068,-0.50,-0.58,0.75
6086,-0.32,-0.58,0.85
6105,-0.16,-0.56,0.86
6123,-0.02,-0.57,0.84
6142,0.06,-0.56,0.86
6160,0.14,-0.55,0.88
6179,0.22,-0.55,0.86
6197,0.10,-0.58,0.95
6216,-0.21,-0.48,1.05
6234,-0.33,-0.51,0.99
6253,-0.35,-0.49,1.00
6271,-0.21,-0.49,0.91
6290,-0.13,-0.45,0.90
6308,-0.04,-0.43,1.00
6327,0.03,-0.42,1.12
6345,0.14,-0.41,1.16
6364,0.16,-0.40,1.17
6382,-0.02,-0.39,1.17
6401,-0.13,-0.38,1.17
6419,-0.22,-0.37,1.12
6438,-0.21,-0.38,1.19
6456,-0.13,-0.37,1.16
6475,-0.10,-0.37,1.11
6493,-0.03,-0.37,1.11
6512,-0.00,-0.36,1.11
6530,0.00,-0.34,1.07
6549,0.01,-0.32,1.09
6567,-0.01,-0.30,1.03
6586,-0.03,-0.30,1.13
6604,-0.03,-0.31,1.16
6623,-0.03,-0.31,1.25
6641,-0.02,-0.29,1.22
6660,-0.03,-0.29,1.10
6678,-0.02,-0.27,1.06
6697,-0.01,-0.26,1.09
6715,-0.03,-0.25,1.07
6734,-0.05,-0.24,1.06
6752,-0.10,-0.22,1.08
6771,-0.09,-0.21,1.14
6789,-0.71,-0.37,2.37
6808,0.67,0.13,4.00
6826,0.88,-0.18,1.14
6845,-0.39,-0.20,-0.73
6863,-0.41,-0.27,-0.11
6882,-0.22,-0.31,1.04
6900,0.08,-0.30,1.04
6919,0.15,-0.28,0.76
6937,0.04,-0.26,0.77
6956,-0.09,-0.26,0.85
6974,-0.21,-0.26,1.15
6993,-0.10,-0.24,1.53
7011,-0.08,-0.25,1.27
7030,-0.11,-0.26,0.96
7048,-0.11,-0.27,0.78
7067,-0.11,-0.28,0.82
7085,-0.07,-0.28,0.94
7104,-0.05,-0.27,1.04
7122,-0.08,-0.28,1.05
7141,-0.09,-0.27,1.02
7159,-0.10,-0.27,0.95
7178,-0.11,-0.27,0.94
7196,-0.12,-0.26,0.98
7215,-0.11,-0.27,0.98
7233,-0.12,-0.26,0.97
7252,-0.10,-0.27,0.96
7270,-0.10,-0.27,0.99
7289,-0.11,-0.27,0.98
7307,-0.08,-0.28,1.00
7326,-0.06,-0.27,1.00
7344,-0.06,-0.27,0.96
7363,-0.06,-0.27,0.97
7381,-0.07,-0.26,0.98
7400,-0.05,-0.26,0.97
7418,-0.06,-0.26,1.00
7437,-0.09,-0.26,1.00
7455,-0.08,-0.26,0.96
7474,-0.07,-0.26,0.99
7492,-0.05,-0.25,1.01
7511,-0.05,-0.25,0.99
7529,-0.06,-0.25,0.94
7548,-0.05,-0.25,0.99
7566,-0.05,-0.26,0.99
7585,-0.06,-0.26,1.00
7603,-0.06,-0.26,0.99
7622,-0.07,-0.26,0.99
7640,-0.08,-0.26,0.96
7659,-0.06,-0.26,0.99
7677,-0.08,-0.27,1.00
7696,-0.09,-0.26,0.99
7714,-0.10,-0.26,0.96
7733,-0.11,-0.26,0.98
7751,-0.11,-0.26,0.98
7770,-0.07,-0.26,1.00
7788,-0.05,-0.26,1.00
7807,-0.05,-0.27,0.99
7825,-0.05,-0.26,0.97
7844,-0.07,-0.26,1.00
7862,-0.12,-0.25,1.02
7881,-0.12,-0.25,1.07
7899,-0.10,-0.24,1.14
7918,-0.08,-0.25,1.25
7936,-0.05,-0.25,1.39
7955,-0.07,-0.24,1.43
7973,-0.01,-0.21,1.48
7992,0.08,-0.21,1.56
8010,0.18,-0.21,1.61
8029,0.18,-0.20,1.58
8047,0.14,-0.20,1.54
8066,0.10,-0.19,1.56
8084,0.07,-0.19,1.64
8103,0.09,-0.20,1.68
8121,0.13,-0.20,1.70
8140,0.16,-0.17,1.65
8158,0.16,-0.17,1.63
8177,0.12,-0.17,1.65
8195,0.19,-0.18,1.63
8214,0.23,-0.20,1.62
8232,0.22,-0.20,1.52
8251,0.22,-0.21,1.42
8269,0.15,-0.23,1.40
8288,0.01,-0.22,1.34
8306,0.03,-0.24,1.24
8325,0.09,-0.26,1.19
8343,0.03,-0.25,1.03
8362,-0.01,-0.26,0.86
8380,-0.02,-0.29,0.74
8399,-0.09,-0.30,0.63
8417,-0.11,-0.34,0.48
8436,-0.13,-0.36,0.38
8454,-0.09,-0.39,0.30
8473,-0.06,-0.42,0.20
8491,-0.06,-0.44,0.19
8510,-0.07,-0.49,0.33
8528,-0.08,-0.50,0.29
8547,-0.05,-0.49,0.13
8565,-0.06,-0.52,0.12
8584,-0.16,-0.55,0.15
8602,-0.15,-0.55,0.12
8621,-0.09,-0.56,0.07
8639,-0.08,-0.58,0.00
8658,-0.09,-0.58,-0.15
8676,-0.15,-0.61,-0.21
8695,-0.18,-0.65,-0.09
8713,-0.17,-0.66,-0.13
8732,-0.12,-0.66,-0.18
8750,-0.10,-0.66,-0.18
8769,-0.08,-0.67,-0.14
8787,-0.05,-0.68,-0.15
8806,-0.12,-0.69,-0.23
8824,-0.14,-0.70,-0.36
8843,-0.15,-0.70,-0.34
8861,-0.16,-0.70,-0.36
8880,-0.16,-0.70,-0.29
8898,-0.15,-0.70,-0.22
8917,-0.05,-0.68,-0.29
8935,0.00,-0.67,-0.42
8954,-0.01,-0.65,-0.53
8972,-0.10,-0.64,-0.64
8991,-0.18,-0.64,-0.68
9009,-0.24,-0.64,-0.72
9028,-0.26,-0.62,-0.75
9046,-0.21,-0.61,-0.78
9065,-0.19,-0.58,-0.86
9083,-0.18,-0.57,-0.93
9102,-0.25,-0.56,-1.03
9120,-0.29,-0.56,-1.12
9139,-0.35,-0.56,-1.13
9157,-0.34,-0.56,-1.13
9176,-0.37,-0.57,-1.09
9194,-0.40,-0.58,-0.99
9213,-0.37,-0.59,-1.00
9231,-0.35,-0.60,-1.02
9250,-0.37,-0.60,-1.04
9268,-0.36,-0.59,-1.11
9287,-0.34,-0.58,-1.07
9305,-0.35,-0.59,-1.01
9324,-0.33,-0.59,-1.02
9342,-0.29,-0.61,-1.00
9361,-0.27,-0.61,-0.96
9379,-0.25,-0.62,-0.92
9398,-0.25,-0.63,-0.87
9416,-0.19,-0.63,-0.84
9435,-0.15,-0.62,-0.87
9453,-0.12,-0.62,-0.90
9472,-0.09,-0.60,-0.94
9490,-0.10,-0.60,-0.93
9509,-0.15,-0.60,-0.90
9527,-0.18,-0.60,-0.86
9546,-0.25,-0.61,-0.79
9564,-0.34,-0.63,-0.73
9583,-0.38,-0.64,-0.71
9601,-0.36,-0.65,-0.64
9620,-0.34,-0.65,-0.59
9638,-0.26,-0.64,-0.60
9657,-0.17,-0.63,-0.65
9675,-0.11,-0.60,-0.62
9694,-0.14,-0.57,-0.54
9712,-0.25,-0.57,-0.39
9731,-0.39,-0.57,-0.25
9749,-0.40,-0.57,-0.14
9768,-0.34,-0.57,-0.09
9786,-0.24,-0.56,-0.10
9805,-0.14,-0.55,-0.15
9823,-0.02,-0.53,-0.13
9842,0.13,-0.51,-0.06
9860,0.26,-0.49,0.07
9879,0.23,-0.47,0.22
9897,-0.05,-0.49,0.43
9916,-0.28,-0.53,0.67
9934,-0.37,-0.56,0.71
9953,-0.41,-0.57,0.69
9971,-0.28,-0.55,0.60
9990,-0.18,-0.57,0.56
10008,-0.01,-0.53,0.64
10027,0.07,-0.56,0.67
10045,0.15,-0.55,0.71
10064,0.13,-0.54,0.76
10082,0.02,-0.55,0.81
10101,-0.17,-0.55,0.95
10119,-0.27,-0.56,0.99
10138,-0.31,-0.57,0.97
10156,-0.20,-0.54,0.78
10175,-0.19,-0.58,0.91
10193,-0.03,-0.55,0.77
10212,-0.06,-0.51,0.96
10230,0.08,-0.53,0.96
10249,0.00,-0.52,0.83
10267,-0.24,-0.47,0.94
10286,-0.41,-0.47,1.06
10304,-0.35,-0.46,1.11
10323,-0.19,-0.43,1.08
10341,-0.14,-0.39,1.04
10360,-0.08,-0.37,1.10
10378,0.04,-0.37,1.21
10397,0.16,-0.36,1.31
10415,0.25,-0.37,1.33
10434,0.24,-0.36,1.27
10452,0.12,-0.36,1.26
10471,0.01,-0.35,1.23
10489,-0.10,-0.37,1.21
10508,-0.10,-0.45,1.23
10526,-0.07,-0.35,1.16
10545,-0.04,-0.35,1.20
10563,0.02,-0.35,1.20
10582,0.06,-0.34,1.20
10600,0.07,-0.31,1.10
10619,0.06,-0.30,1.06
10637,0.01,-0.31,1.12
10656,-0.03,-0.26,1.13
10674,-0.15,-0.39,1.65
10693,-0.27,-0.17,3.64
10711,0.74,-0.34,3.30
10730,-0.00,-0.28,0.31
10748,-0.45,-0.30,-0.01
10767,0.03,-0.32,0.62
10785,0.13,-0.29,0.51
10804,0.13,-0.29,0.45
10822,0.09,-0.28,0.62
10841,0.10,-0.29,0.88
10859,-0.02,-0.31,1.18
10878,-0.18,-0.34,1.39
10896,-0.20,-0.33,1.34
10915,-0.14,-0.33,1.14
10933,-0.11,-0.33,0.97
10952,-0.06,-0.32,0.87
10970,0.01,-0.33,0.88
10989,0.01,-0.32,0.91
11007,-0.01,-0.31,0.92
11026,-0.03,-0.31,0.96
11044,-0.06,-0.30,0.99
11063,-0.07,-0.30,1.02
11081,-0.08,-0.30,1.02
11100,-0.08,-0.30,0.94
11118,-0.06,-0.29,0.97
11137,-0.03,-0.30,0.98
11155,-0.02,-0.29,0.92
11174,-0.04,-0.29,0.92
11192,-0.03,-0.30,0.98
11211,-0.03,-0.31,1.01
11229,-0.04,-0.31,1.00
11248,-0.04,-0.31,0.95
11266,-0.02,-0.31,0.96
11285,-0.02,-0.31,0.97
11303,-0.04,-0.31,0.97
11322,-0.02,-0.31,0.98
11340,-0.02,-0.30,0.95
11359,-0.05,-0.32,0.96
11377,-0.04,-0.31,0.96
11396,0.00,-0.31,0.96
11414,0.00,-0.31,1.00
11433,-0.01,-0.31,0.99
11451,-0.02,-0.31,0.98
11470,-0.02,-0.31,0.98
11488,-0.04,-0.31,0.93
11507,-0.04,-0.30,0.96
11525,-0.03,-0.30,0.97
11544,-0.05,-0.31,0.98
11562,-0.06,-0.30,0.99
11581,-0.04,-0.30,0.99
11599,-0.03,-0.30,0.98
11618,-0.00,-0.30,0.94
11636,-0.01,-0.31,0.93
11655,-0.03,-0.31,0.99
11673,-0.04,-0.31,0.98
11692,-0.06,-0.30,0.97
11710,-0.08,-0.31,0.99
11729,-0.05,-0.31,0.98
11747,-0.04,-0.31,0.95
11766,-0.03,-0.31,0.94
11784,-0.02,-0.32,0.99
11803,-0.03,-0.31,0.97
11821,-0.04,-0.31,0.97
11840,-0.04,-0.31,1.01
11858,-0.04,-0.30,1.01
11877,-0.03,-0.30,1.01
11895,-0.05,-0.30,1.03
11914,-0.07,-0.29,1.04
11932,-0.02,-0.30,1.07
11951,0.02,-0.30,1.14
11969,0.03,-0.30,1.23
11988,-0.02,-0.30,1.35
12006,-0.05,-0.28,1.47
12025,-0.07,-0.28,1.58
12043,-0.06,-0.30,1.74
12062,0.03,-0.31,1.85
12080,0.12,-0.32,1.90
12099,0.17,-0.27,1.80
12117,0.28,-0.44,1.83
12136,0.14,-0.29,1.61
12154,0.13,-0.32,1.54
12173,0.08,-0.32,1.56
12191,0.05,-0.32,1.49
12210,0.11,-0.33,1.44
12228,0.13,-0.34,1.39
12247,0.09,-0.35,1.35
12265,0.01,-0.35,1.30
12284,-0.05,-0.36,1.39
12302,-0.06,-0.38,1.35
12321,0.03,-0.39,1.23
12339,0.12,-0.38,1.07
12358,0.10,-0.39,0.92
12376,0.04,-0.40,0.80
12395,0.04,-0.41,0.74
12413,0.11,-0.42,0.77
12432,0.08,-0.44,0.87
12450,0.01,-0.43,0.78
12469,-0.14,-0.43,0.74
12487,-0.13,-0.43,0.68
12506,-0.04,-0.41,0.48
12524,-0.02,-0.43,0.35
12543,-0.01,-0.44,0.38
12561,-0.03,-0.45,0.50
12580,-0.02,-0.47,0.45
12598,0.04,-0.46,0.29
12617,0.09,-0.46,0.21
12635,0.09,-0.48,0.19
12654,0.14,-0.46,0.09
12672,0.13,-0.45,0.03
12691,0.04,-0.45,0.01
12709,-0.09,-0.45,-0.04
12728,-0.16,-0.47,-0.00
12746,-0.10,-0.46,-0.07
12765,0.02,-0.42,-0.28
12783,0.10,-0.41,-0.50
12802,0.05,-0.41,-0.63
12820,-0.09,-0.43,-0.56
12839,-0.10,-0.42,-0.60
12857,-0.11,-0.44,-0.70
12876,-0.15,-0.43,-0.78
12894,-0.23,-0.44,-0.81
12913,-0.27,-0.43,-0.93
12931,-0.24,-0.42,-1.10
12950,-0.27,-0.40,-1.14
12968,-0.37,-0.41,-1.17
12987,-0.40,-0.39,-1.26
13005,-0.40,-0.38,-1.39
13024,-0.42,-0.41,-1.43
13042,-0.45,-0.43,-1.39
13061,-0.46,-0.45,-1.32
13079,-0.46,-0.49,-1.25
13098,-0.46,-0.52,-1.16
13116,-0.44,-0.56,-1.07
13135,-0.41,-0.59,-1.01
13153,-0.41,-0.61,-0.89
13172,-0.39,-0.63,-0.87
13190,-0.38,-0.64,-0.91
13209,-0.39,-0.64,-0.91
13227,-0.35,-0.63,-0.90
13246,-0.31,-0.62,-0.93
13264,-0.27,-0.60,-1.00
13283,-0.26,-0.58,-1.02
13301,-0.27,-0.57,-1.04
13320,-0.30,-0.56,-1.08
13338,-0.29,-0.54,-1.09
13357,-0.27,-0.54,-1.05
13375,-0.24,-0.53,-1.05
13394,-0.23,-0.53,-1.05
13412,-0.26,-0.53,-1.01
13431,-0.32,-0.53,-0.93
13449,-0.34,-0.53,-0.91
13468,-0.34,-0.52,-0.87
13486,-0.32,-0.51,-0.78
13505,-0.29,-0.50,-0.71
13523,-0.22,-0.48,-0.72
13542,-0.11,-0.46,-0.62
13560,0.01,-0.45,-0.58
13579,0.07,-0.41,-0.60
13597,0.08,-0.38,-0.51
13616,-0.04,-0.35,-0.34
13634,-0.13,-0.35,-0.15
13653,-0.21,-0.36,0.04
13671,-0.25,-0.38,0.20
13690,-0.25,-0.39,0.28
13708,-0.23,-0.41,0.37
13727,-0.17,-0.44,0.47
13745,-0.11,-0.44,0.51
13764,-0.04,-0.43,0.53
13782,0.06,-0.43,0.60
13801,0.13,-0.43,0.68
13819,0.12,-0.42,0.78
13838,-0.02,-0.45,0.85
13856,-0.28,-0.44,0.94
13875,-0.54,-0.49,1.05
13893,-0.66,-0.52,0.94
13912,-0.49,-0.48,1.02
13930,-0.18,-0.43,0.98
13949,-0.08,-0.53,1.08
13967,0.06,-0.46,1.13
13986,0.07,-0.47,1.09
14004,0.01,-0.45,1.06
14023,0.00,-0.46,1.08
14041,-0.08,-0.47,1.18
14060,-0.23,-0.50,1.22
14078,-0.30,-0.50,1.24
14097,-0.26,-0.49,1.21
14115,-0.15,-0.47,1.10
14134,-0.07,-0.46,1.04
14152,-0.03,-0.43,1.04
14171,-0.04,-0.43,1.02
14189,-0.09,-0.44,1.01
14208,-0.06,-0.42,0.98
14226,-0.09,-0.40,1.07
14245,-0.20,-0.41,1.10
14263,-0.24,-0.39,1.19
14282,-0.15,-0.38,1.21
14300,-0.10,-0.36,1.13
14319,-0.10,-0.35,1.10
14337,-0.10,-0.34,1.14
14356,-0.01,-0.34,1.17
14374,-0.03,-0.32,1.18
14393,0.02,-0.30,1.17
14411,-0.03,-0.30,1.11
14430,-0.12,-0.31,1.24
14448,-0.64,-0.50,2.67
14467,0.18,-0.16,4.00
14485,0.44,-0.30,2.29
14504,-0.26,-0.46,0.13
14522,-0.24,-0.31,0.27
14541,0.05,-0.33,0.59
14559,0.09,-0.30,0.46
14578,0.13,-0.30,0.39
14596,0.18,-0.29,0.55
14615,0.19,-0.30,0.77
14633,0.05,-0.31,0.95
14652,-0.03,-0.31,1.10
14670,-0.05,-0.33,1.28
14689,-0.06,-0.34,1.37
14707,-0.05,-0.35,1.29
14726,-0.00,-0.35,1.12
14744,0.07,-0.34,0.95
14763,0.09,-0.33,0.84
14781,0.10,-0.32,0.76
14800,0.09,-0.32,0.77
14818,0.03,-0.32,0.84
14837,-0.04,-0.33,0.96
14855,-0.09,-0.35,1.08
14874,-0.15,-0.34,1.10
14892,-0.15,-0.34,1.04
14911,-0.11,-0.33,0.98
14929,-0.09,-0.32,0.89
14948,-0.08,-0.31,0.85
14966,-0.07,-0.32,0.89
14985,-0.07,-0.32,0.94
15003,-0.04,-0.32,0.99
15022,-0.03,-0.31,1.00
15040,-0.06,-0.31,1.00
15059,-0.06,-0.31,1.00
15077,-0.06,-0.31,1.00
15096,-0.03,-0.31,0.99
15114,-0.03,-0.31,1.00
15133,-0.01,-0.31,0.98
15151,0.01,-0.31,0.96
15170,-0.02,-0.32,0.93
15188,-0.04,-0.32,0.94
15207,-0.05,-0.32,0.96
15225,-0.07,-0.33,0.96
15244,-0.05,-0.33,0.97
15262,-0.05,-0.33,0.98
15281,-0.04,-0.32,0.98
15299,-0.04,-0.32,0.97
15318,-0.03,-0.32,0.97
15336,-0.02,-0.31,0.95
15355,-0.04,-0.32,0.95
15373,-0.05,-0.31,0.95
15392,-0.05,-0.32,0.95
15410,-0.07,-0.31,0.96
15429,-0.08,-0.32,0.97
15447,-0.07,-0.31,0.98
15466,-0.06,-0.31,0.99
15484,-0.02,-0.31,0.99
15503,-0.01,-0.31,0.96
15521,-0.03,-0.31,0.94
15540,-0.05,-0.31,0.95
15558,-0.04,-0.31,0.96
15577,-0.07,-0.32,0.97
15595,-0.08,-0.32,0.96
15614,-0.07,-0.32,0.99
15632,-0.05,-0.32,1.02
15651,-0.03,-0.31,0.98
15669,-0.02,-0.32,0.98
15688,-0.02,-0.31,0.97
15706,-0.02,-0.32,1.00
15725,-0.06,-0.31,0.98
15743,-0.08,-0.31,0.99
15762,-0.12,-0.31,1.00
15780,-0.07,-0.31,1.01
15799,-0.03,-0.31,1.03
15817,-0.00,-0.31,1.04
15836,0.00,-0.32,1.04
15854,-0.02,-0.32,1.07
15873,-0.06,-0.32,1.10
15891,-0.10,-0.32,1.13
15910,-0.12,-0.31,1.18
15928,-0.14,-0.30,1.22
15947,-0.10,-0.28,1.26
15965,-0.01,-0.28,1.31
15984,0.10,-0.28,1.42
16002,0.16,-0.27,1.54
16021,0.20,-0.27,1.72
16039,0.23,-0.18,1.82
16058,0.23,-0.33,1.99
16076,0.15,-0.30,1.83
16095,0.00,-0.30,1.68
16113,0.08,-0.29,1.51
16132,0.08,-0.33,1.44
16150,0.11,-0.35,1.44
16169,0.13,-0.37,1.43
16187,0.13,-0.37,1.38
16206,0.01,-0.40,1.47
16224,-0.21,-0.41,1.66
16243,-0.33,-0.40,1.68
16261,-0.08,-0.35,1.36
16280,0.15,-0.32,1.05
16298,0.25,-0.33,0.92
16317,0.21,-0.37,0.90
16335,0.16,-0.40,0.91
16354,0.13,-0.40,0.80
16372,0.13,-0.39,0.67
16391,0.03,-0.39,0.62
16409,-0.11,-0.41,0.72
16428,-0.16,-0.43,0.80
16446,-0.16,-0.43,0.75
16465,-0.03,-0.42,0.64
16483,0.09,-0.41,0.52
16502,0.13,-0.41,0.37
16520,0.20,-0.42,0.25
16539,0.08,-0.39,0.20
16557,0.04,-0.41,0.03
16576,-0.17,-0.42,0.02
16594,-0.30,-0.43,0.07
16613,-0.31,-0.45,0.01
16631,-0.22,-0.46,-0.21
16650,-0.14,-0.48,-0.32
16668,-0.07,-0.50,-0.31
16687,-0.08,-0.51,-0.23
16705,-0.06,-0.53,-0.21
16724,-0.06,-0.53,-0.27
16742,-0.01,-0.54,-0.27
16761,-0.01,-0.51,-0.32
16779,-0.10,-0.52,-0.37
16798,-0.15,-0.53,-0.44
16816,-0.18,-0.53,-0.51
16835,-0.14,-0.52,-0.64
16853,-0.13,-0.49,-0.66
16872,-0.15,-0.48,-0.69
16890,-0.15,-0.44,-0.88
16909,-0.14,-0.43,-1.09
16927,-0.26,-0.41,-1.18
16946,-0.39,-0.41,-1.20
16964,-0.51,-0.42,-1.18
16983,-0.51,-0.41,-1.30
17001,-0.45,-0.38,-1.46
17020,-0.41,-0.37,-1.52
17038,-0.45,-0.37,-1.55
17057,-0.54,-0.39,-1.56
17075,-0.54,-0.41,-1.54
17094,-0.56,-0.42,-1.49
17112,-0.62,-0.45,-1.36
17131,-0.60,-0.46,-1.27
17149,-0.55,-0.48,-1.18
17168,-0.51,-0.50,-1.14
17186,-0.43,-0.50,-1.12
17205,-0.34,-0.50,-1.07
17223,-0.28,-0.49,-1.06
17242,-0.23,-0.47,-1.02
17260,-0.19,-0.47,-0.97
17279,-0.15,-0.47,-0.97
17297,-0.14,-0.45,-0.99
17316,-0.15,-0.45,-0.90
17334,-0.21,-0.47,-0.76
17353,-0.24,-0.48,-0.72
17371,-0.21,-0.48,-0.68
17390,-0.22,-0.50,-0.57
17408,-0.22,-0.52,-0.58
17427,-0.26,-0.52,-0.62
17445,-0.29,-0.51,-0.60
17464,-0.30,-0.51,-0.56
17482,-0.23,-0.50,-0.53
17501,-0.19,-0.47,-0.54
17519,-0.18,-0.43,-0.51
17538,-0.24,-0.40,-0.38
17556,-0.19,-0.36,-0.22
17575,-0.04,-0.35,-0.03
17593,0.05,-0.33,0.13
17612,0.09,-0.34,0.37
17630,0.10,-0.38,0.59
17649,0.12,-0.40,0.66
17667,0.10,-0.41,0.62
17686,0.00,-0.42,0.58
17704,-0.14,-0.41,0.65
17723,-0.17,-0.41,0.75
17741,-0.18,-0.42,0.90
17760,-0.19,-0.43,1.06
17778,-0.16,-0.49,1.11
17797,-0.15,-0.49,1.17
17815,-0.05,-0.53,1.04
17834,0.03,-0.47,0.95
17852,0.01,-0.44,0.89
17871,-0.04,-0.42,0.90
17889,-0.10,-0.41,1.08
17908,-0.16,-0.43,1.31
17926,-0.18,-0.46,1.43
17945,-0.18,-0.49,1.42
17963,-0.10,-0.46,1.32
17982,-0.00,-0.43,1.20
18000,0.09,-0.44,1.14
18019,0.15,-0.43,1.09
18037,0.16,-0.40,1.00
18056,0.15,-0.37,1.01
18074,0.10,-0.37,1.12
18093,-0.02,-0.39,1.28
18111,-0.11,-0.39,1.36
18130,-0.13,-0.39,1.36
18148,-0.05,-0.39,1.31
18167,0.04,-0.37,1.23
18185,0.14,-0.36,1.20
18204,0.16,-0.35,1.20
18222,0.19,-0.35,1.23
18241,0.18,-0.35,1.24
18259,0.11,-0.35,1.22
18278,-0.04,-0.36,1.26
18296,-0.14,-0.36,1.19
18315,-0.12,-0.33,1.12
18333,-0.13,-0.32,1.05
18352,-0.06,-0.31,1.01
18370,-0.39,-0.57,2.10
18389,1.03,-0.07,4.00
18407,0.75,-0.30,1.64
18426,-0.28,-0.27,-0.21
18444,-0.47,-0.33,-0.11
18463,-0.21,-0.35,0.81
18481,0.04,-0.33,0.70
18500,0.06,-0.32,0.51
18518,-0.00,-0.32,0.81
18537,0.02,-0.35,1.50
18555,0.15,-0.35,1.66
18574,-0.03,-0.34,1.21
18592,-0.18,-0.34,0.78
18611,-0.18,-0.34,0.65
18629,-0.11,-0.36,0.79
18648,-0.06,-0.35,0.95
18666,-0.01,-0.35,1.08
18685,0.04,-0.34,1.06
18703,0.00,-0.33,0.97
18722,-0.02,-0.33,0.91
18740,-0.03,-0.32,0.89
18759,-0.03,-0.33,0.92
18777,-0.01,-0.33,0.98
18796,0.00,-0.33,0.99
18814,0.01,-0.33,0.96
18833,-0.04,-0.33,0.91
18851,-0.05,-0.33,0.96
18870,-0.03,-0.34,1.00
18888,-0.01,-0.34,0.99
18907,-0.01,-0.34,0.96
18925,-0.03,-0.33,0.93
18944,-0.02,-0.33,0.95
18962,-0.00,-0.34,1.00
18981,0.01,-0.33,0.96
18999,-0.02,-0.33,0.94
19018,-0.03,-0.33,0.93
19036,-0.04,-0.33,0.95
19055,-0.05,-0.33,0.99
19073,-0.04,-0.33,0.98
19092,0.01,-0.33,0.95
19110,0.03,-0.32,0.95
19129,0.02,-0.32,0.96
19147,0.01,-0.32,0.98
19166,-0.00,-0.32,0.99
19184,-0.04,-0.32,0.97
19203,-0.04,-0.32,0.94
19221,-0.01,-0.32,0.96
19240,0.00,-0.33,0.99
19258,0.01,-0.32,0.95
19277,0.01,-0.32,0.95
19295,0.00,-0.32,0.96
19314,0.02,-0.32,0.98
19332,0.00,-0.32,0.98
19351,-0.00,-0.32,0.97
19369,-0.01,-0.32,0.96
19388,0.00,-0.31,0.97
19406,-0.01,-0.32,0.95
19425,-0.00,-0.32,0.98
19443,0.02,-0.32,0.98
19462,0.02,-0.31,0.97
19480,0.04,-0.31,0.96
19499,0.02,-0.31,0.96
19517,0.01,-0.31,0.98
19536,0.00,-0.31,0.96
19554,0.00,-0.32,0.96
19573,-0.01,-0.31,0.97
19591,0.00,-0.31,0.97
19610,-0.01,-0.32,0.97
19628,0.02,-0.31,0.96
19647,0.03,-0.31,0.98
19665,0.01,-0.31,0.98
19684,-0.00,-0.31,0.96
19702,-0.00,-0.31,0.95
19721,0.01,-0.31,0.99
19739,-0.01,-0.31,0.98
19758,-0.01,-0.31,0.98
19776,-0.01,-0.31,0.99
19795,-0.03,-0.31,1.01
19813,-0.06,-0.31,1.02
19832,-0.06,-0.32,1.07
19850,-0.07,-0.30,1.13
19869,-0.07,-0.30,1.26
19887,-0.05,-0.30,1.49
19906,-0.03,-0.33,1.67
19924,0.04,-0.33,1.73
19943,0.04,-0.32,1.78
19961,0.04,-0.32,1.87
19980,0.04,-0.30,1.88
19998,0.14,-0.31,1.81
20017,0.27,-0.24,1.66
20035,0.10,-0.30,1.72
20054,0.06,-0.34,1.72
20072,0.03,-0.30,1.49
20091,0.21,-0.34,1.49
20109,0.11,-0.33,1.49
20128,0.01,-0.35,1.53
20146,-0.06,-0.37,1.53
20165,-0.01,-0.37,1.38
20183,0.04,-0.35,1.33
20202,-0.02,-0.37,1.29
20220,0.01,-0.36,1.07
20239,-0.02,-0.36,0.92
20257,-0.09,-0.37,0.78
20276,-0.07,-0.40,0.67
20294,-0.06,-0.42,0.66
20313,-0.04,-0.44,0.67
20331,0.04,-0.43,0.61
20350,0.02,-0.42,0.50
20368,-0.04,-0.42,0.36
20387,-0.13,-0.44,0.34
20405,-0.25,-0.46,0.39
20424,-0.20,-0.48,0.33
20442,-0.16,-0.48,0.26
20461,-0.14,-0.49,0.23
20479,-0.16,-0.52,0.16
20498,-0.10,-0.50,0.10
20516,-0.07,-0.52,0.11
20535,-0.02,-0.52,0.08
20553,-0.05,-0.52,-0.01
20572,-0.06,-0.53,-0.13
20590,-0.08,-0.54,-0.21
20609,-0.20,-0.57,-0.20
20627,-0.25,-0.58,-0.15
20646,-0.21,-0.59,-0.16
20664,-0.19,-0.60,-0.22
20683,-0.10,-0.61,-0.28
20701,-0.01,-0.61,-0.29
20720,0.01,-0.61,-0.32
20738,-0.07,-0.62,-0.33
20757,-0.15,-0.63,-0.29
20775,-0.20,-0.64,-0.25
20794,-0.20,-0.65,-0.30
20812,-0.11,-0.63,-0.48
20831,-0.07,-0.61,-0.62
20849,-0.08,-0.59,-0.62
20868,-0.10,-0.57,-0.67
20886,-0.18,-0.54,-0.80
20905,-0.25,-0.51,-0.88
20923,-0.30,-0.47,-1.04
20942,-0.36,-0.41,-1.28
20960,-0.50,-0.38,-1.44
20979,-0.60,-0.33,-1.57
20997,-0.67,-0.32,-1.70
21016,-0.74,-0.32,-1.75
21034,-0.74,-0.34,-1.73
21053,-0.72,-0.33,-1.68
21071,-0.65,-0.36,-1.49
21090,-0.59,-0.38,-1.38
21108,-0.51,-0.39,-1.37
21127,-0.43,-0.41,-1.28
21145,-0.36,-0.42,-1.18
21164,-0.30,-0.43,-1.14
21182,-0.26,-0.42,-1.15
21201,-0.24,-0.43,-1.15
21219,-0.25,-0.42,-1.14
21238,-0.26,-0.42,-1.05
21256,-0.28,-0.43,-0.95
21275,-0.28,-0.43,-0.86
21293,-0.20,-0.44,-0.80
21312,-0.13,-0.44,-0.71
21330,-0.07,-0.46,-0.63
21349,-0.02,-0.46,-0.56
21367,-0.04,-0.48,-0.46
21386,-0.08,-0.49,-0.38
21404,-0.05,-0.51,-0.32
21423,-0.09,-0.50,-0.30
21441,-0.17,-0.51,-0.18
21460,-0.25,-0.52,-0.09
21478,-0.32,-0.51,-0.05
21497,-0.38,-0.53,0.03
21515,-0.40,-0.54,0.10
21534,-0.36,-0.51,0.18
21552,-0.23,-0.50,0.23
21571,-0.09,-0.47,0.22
21589,0.01,-0.44,0.25
21608,0.05,-0.45,0.33
21626,0.08,-0.39,0.40
21645,0.02,-0.40,0.56
21663,-0.06,-0.40,0.73
21682,-0.09,-0.44,0.91
21700,-0.12,-0.46,1.07
21719,-0.09,-0.45,1.08
21737,-0.03,-0.53,1.05
21756,0.11,-0.45,1.04
21774,0.13,-0.51,1.04
21793,0.04,-0.49,0.98
21811,0.06,-0.50,1.05
21830,0.06,-0.49,1.13
21848,0.11,-0.51,1.19
21867,0.19,-0.50,1.25
21885,0.14,-0.50,1.12
21904,0.06,-0.51,1.02
21922,0.05,-0.49,0.98
21941,-0.08,-0.48,0.91
21959,-0.10,-0.46,0.91
21978,-0.06,-0.43,0.94
21996,-0.05,-0.41,0.99
22015,-0.04,-0.41,1.08
22033,-0.01,-0.42,1.16
22052,0.01,-0.41,1.15
22070,0.05,-0.42,1.12
22089,0.09,-0.40,1.11
22107,0.10,-0.35,1.04
22126,0.10,-0.39,1.08
22144,0.02,-0.39,1.10
22163,-0.06,-0.38,1.16
22181,-0.14,-0.38,1.23
22200,-0.16,-0.38,1.24
22218,-0.14,-0.37,1.23
22237,-0.08,-0.35,1.14
22255,-0.06,-0.35,1.14
22274,0.03,-0.33,1.10
22292,0.01,-0.31,1.12
22311,-0.35,-0.55,1.58
22329,-0.70,-0.05,4.00
22348,1.56,-0.02,3.99
22366,0.21,-0.21,-0.26
22385,-0.79,-0.32,-1.68
22403,-0.18,-0.29,0.08
22422,0.13,-0.31,0.83
22440,-0.01,-0.34,0.36
22459,0.04,-0.33,0.51
22477,0.17,-0.34,0.95
22496,0.15,-0.36,1.10
22514,-0.08,-0.47,1.73
22533,0.16,-0.33,2.36
22551,0.11,-0.38,1.20
22570,-0.22,-0.37,0.27
22588,-0.30,-0.38,0.31
22607,-0.16,-0.38,0.70
22625,-0.17,-0.39,0.83
22644,-0.17,-0.40,1.17
22662,-0.02,-0.39,1.25
22681,0.01,-0.37,1.00
22699,-0.03,-0.36,0.87
22718,-0.06,-0.35,0.86
22736,-0.08,-0.35,0.92
22755,-0.10,-0.34,0.98
22773,-0.12,-0.35,0.99
22792,-0.13,-0.35,0.96
22810,-0.14,-0.35,0.92
22829,-0.11,-0.35,0.91
22847,-0.05,-0.35,0.94
22866,0.01,-0.35,0.95
22884,0.01,-0.36,0.99
22903,0.00,-0.36,0.99
22921,-0.01,-0.36,0.96
22940,-0.04,-0.37,0.97
22958,-0.07,-0.36,0.94
22977,-0.07,-0.36,0.91
22995,-0.08,-0.36,0.94
23014,-0.04,-0.37,0.96
23032,-0.03,-0.37,0.98
23051,-0.02,-0.36,0.94
23069,-0.02,-0.36,0.92
23088,-0.04,-0.36,0.96
23106,-0.06,-0.36,0.97
23125,-0.06,-0.35,0.96
23143,-0.09,-0.35,0.94
23162,-0.09,-0.35,0.93
23180,-0.07,-0.35,0.97
23199,-0.06,-0.35,0.97
23217,-0.06,-0.36,0.93
23236,-0.06,-0.35,0.94
23254,-0.06,-0.36,0.96
23273,-0.06,-0.36,0.94
23291,-0.05,-0.36,0.95
23310,-0.05,-0.36,0.94
23328,-0.07,-0.36,0.98
23347,-0.07,-0.36,0.98
23365,-0.08,-0.37,0.95
23384,-0.08,-0.37,0.94
23402,-0.08,-0.36,0.94
23421,-0.06,-0.36,0.94
23439,-0.03,-0.36,0.96
23458,-0.04,-0.36,0.97
23476,-0.06,-0.37,0.99
23495,-0.05,-0.36,1.00
23513,-0.09,-0.36,0.99
23532,-0.15,-0.35,0.99
23550,-0.15,-0.35,0.99
23569,-0.07,-0.35,1.01
23587,-0.02,-0.35,1.01
23606,-0.01,-0.35,1.00
23624,-0.05,-0.35,1.02
23643,-0.07,-0.35,1.09
23661,-0.09,-0.36,1.14
23680,-0.09,-0.34,1.32
23698,-0.02,-0.36,1.38
23717,0.00,-0.36,1.53
23735,-0.02,-0.36,1.52
23754,-0.00,-0.37,1.56
23772,0.02,-0.38,1.58
23791,-0.00,-0.39,1.63
23809,0.04,-0.40,1.59
23828,0.08,-0.41,1.54
23846,0.03,-0.40,1.50
23865,0.02,-0.42,1.42
23883,0.12,-0.43,1.41
23902,0.20,-0.44,1.40
23920,0.22,-0.43,1.34
23939,0.31,-0.45,1.31
23957,0.30,-0.43,1.29
23976,0.12,-0.41,1.21
23994,-0.03,-0.43,1.11
24013,-0.09,-0.42,1.10
24031,-0.07,-0.44,1.05
24050,0.01,-0.43,0.96
24068,0.03,-0.46,0.92
24087,-0.05,-0.48,0.91
24105,-0.14,-0.50,0.83
24124,-0.19,-0.51,0.79
24142,-0.18,-0.53,0.74
24161,-0.14,-0.54,0.63
24179,-0.15,-0.55,0.60
24198,-0.21,-0.57,0.56
24216,-0.27,-0.58,0.53
24235,-0.35,-0.59,0.44
24253,-0.36,-0.61,0.40
24272,-0.26,-0.62,0.41
24290,-0.16,-0.62,0.33
24309,-0.17,-0.64,0.21
24327,-0.18,-0.65,0.21
24346,-0.12,-0.64,0.28
24364,-0.08,-0.63,0.22
24383,-0.04,-0.61,0.20
24401,-0.09,-0.60,0.20
24420,-0.06,-0.59,0.13
24438,-0.10,-0.59,-0.01
24457,-0.15,-0.59,-0.15
24475,-0.13,-0.58,-0.34
24494,-0.22,-0.61,-0.39
24512,-0.23,-0.61,-0.29
24531,-0.16,-0.60,-0.25
24549,-0.10,-0.58,-0.26
24568,-0.01,-0.58,-0.38
24586,0.04,-0.58,-0.43
24605,0.01,-0.59,-0.45
24623,-0.09,-0.60,-0.52
24642,-0.24,-0.62,-0.51
24660,-0.29,-0.65,-0.44
24679,-0.24,-0.65,-0.45
24697,-0.17,-0.64,-0.49
24716,-0.08,-0.62,-0.51
24734,-0.01,-0.60,-0.55
24753,0.03,-0.57,-0.71
24771,-0.04,-0.54,-0.84
24790,-0.15,-0.50,-0.96
24808,-0.21,-0.45,-1.11
24827,-0.27,-0.42,-1.30
24845,-0.43,-0.38,-1.47
24864,-0.56,-0.34,-1.62
24882,-0.61,-0.35,-1.78
24901,-0.59,-0.34,-1.76
24919,-0.51,-0.33,-1.74
24938,-0.47,-0.33,-1.69
24956,-0.43,-0.34,-1.56
24975,-0.40,-0.36,-1.42
24993,-0.38,-0.40,-1.30
25012,-0.34,-0.44,-1.20
25030,-0.33,-0.47,-1.06
25049,-0.34,-0.51,-0.90
25067,-0.31,-0.53,-0.79
25086,-0.22,-0.55,-0.73
25104,-0.15,-0.56,-0.73
25123,-0.09,-0.56,-0.75
25141,-0.02,-0.56,-0.75
25160,-0.03,-0.57,-0.76
25178,-0.07,-0.58,-0.74
25197,-0.16,-0.57,-0.71
25215,-0.29,-0.58,-0.62
25234,-0.43,-0.60,-0.50
25252,-0.53,-0.61,-0.37
25271,-0.49,-0.62,-0.35
25289,-0.37,-0.62,-0.37
25308,-0.26,-0.58,-0.37
25326,-0.14,-0.56,-0.31
25345,-0.01,-0.51,-0.26
25363,0.13,-0.47,-0.22
25382,0.25,-0.43,-0.15
25400,0.32,-0.37,-0.09
25419,0.15,-0.34,0.04
25437,-0.29,-0.40,0.44
25456,-0.51,-0.43,0.62
25474,-0.57,-0.48,0.63
25493,-0.54,-0.49,0.64
25511,-0.37,-0.49,0.60
25530,-0.12,-0.47,0.57
25548,0.12,-0.48,0.63
25567,0.29,-0.48,0.71
25585,0.41,-0.49,0.73
25604,0.27,-0.49,0.72
25622,-0.12,-0.44,0.91
25641,-0.63,-0.51,1.11
25659,-0.81,-0.48,1.16
25678,-0.53,-0.49,1.13
25696,-0.17,-0.45,1.05
25715,0.13,-0.47,1.11
25733,0.36,-0.46,1.24
25752,0.46,-0.53,1.15
25770,0.41,-0.48,1.19
25789,0.29,-0.47,1.08
25807,0.04,-0.49,0.91
25826,-0.16,-0.48,0.92
25844,-0.21,-0.48,0.93
25863,-0.15,-0.47,0.89
25881,-0.10,-0.44,0.86
25900,-0.06,-0.42,0.85
25918,-0.04,-0.40,0.86
25937,0.10,-0.36,0.94
25955,0.12,-0.38,1.09
25974,0.14,-0.38,1.24
25992,0.10,-0.39,1.34
26011,0.08,-0.40,1.42
26029,0.06,-0.41,1.38
26048,-0.07,-0.38,1.25
26066,-0.18,-0.23,1.15
26085,-1.57,-1.42,3.53
26103,0.93,0.32,4.00
26122,1.47,-0.20,1.77
26140,-0.91,-0.36,-2.49
26159,-0.84,-0.34,-1.52
26177,-0.05,-0.43,1.11
26196,0.13,-0.40,1.15
26214,0.03,-0.35,0.19
26233,0.09,-0.36,0.45
26251,0.18,-0.35,0.82
26270,0.17,-0.34,0.70
26288,-0.05,-0.43,0.98
26307,-0.22,-0.42,1.65
26325,0.05,-0.43,2.25
26344,0.24,-0.40,1.52
26362,-0.11,-0.36,0.33
26381,-0.12,-0.37,0.23
26399,0.05,-0.37,0.70
26418,0.13,-0.38,0.82
26436,0.13,-0.38,1.05
26455,0.19,-0.38,1.33
26473,0.15,-0.38,1.18
26492,-0.02,-0.37,0.88
26510,-0.08,-0.38,0.77
26529,-0.09,-0.39,0.83
26547,-0.07,-0.40,0.94
26566,-0.02,-0.40,0.98
26584,0.01,-0.40,0.95
26603,0.02,-0.39,0.96
26621,0.02,-0.40,0.97
26640,0.01,-0.40,0.94
26658,0.03,-0.40,0.88
26677,0.01,-0.39,0.92
26695,-0.01,-0.39,0.94
26714,-0.01,-0.40,0.97
26732,-0.00,-0.40,0.98
26751,-0.02,-0.41,0.94
26769,-0.01,-0.39,0.85
26788,-0.03,-0.40,0.89
26806,-0.05,-0.40,0.95
26825,-0.06,-0.41,0.99
26843,-0.10,-0.40,0.96
26862,-0.07,-0.40,0.90
26880,-0.01,-0.40,0.94
26899,0.02,-0.40,0.95
26917,0.04,-0.39,0.93
26936,0.03,-0.39,0.94
26954,0.00,-0.39,0.94
26973,0.01,-0.39,0.95
26991,-0.02,-0.39,0.94
27010,-0.03,-0.39,0.94
27028,-0.02,-0.39,0.95
27047,-0.02,-0.39,0.95
27065,-0.01,-0.39,0.93
27084,0.01,-0.40,0.92
27102,0.00,-0.39,0.93
27121,-0.02,-0.40,0.96
27139,-0.04,-0.40,0.93
27158,-0.06,-0.40,0.93
27176,-0.05,-0.41,0.92
27195,0.06,-0.38,0.94
27213,-0.00,-0.40,0.95
27232,0.02,-0.40,0.94
27250,0.02,-0.40,0.94
27269,-0.00,-0.40,0.92
27287,0.00,-0.39,0.93
27306,0.00,-0.39,0.96
27324,-0.01,-0.39,0.95
27343,-0.01,-0.39,0.95
27361,-0.03,-0.39,0.93
27380,-0.03,-0.39,0.93
27398,-0.04,-0.39,0.91
27417,-0.01,-0.39,0.93
27435,-0.00,-0.39,0.96
27454,0.01,-0.39,0.95
27472,0.02,-0.39,0.95
27491,0.03,-0.39,0.95
27509,-0.00,-0.39,0.95
27528,-0.02,-0.40,0.93
27546,-0.01,-0.39,0.93
27565,-0.03,-0.39,0.96
27583,-0.07,-0.39,0.99
27602,-0.05,-0.38,1.00
27620,0.01,-0.37,1.02
27639,0.07,-0.39,1.10
27657,0.14,-0.39,1.15
27676,0.11,-0.37,1.16
27694,0.03,-0.38,1.34
27713,-0.07,-0.39,1.48
27731,-0.15,-0.39,1.57
27750,-0.08,-0.41,1.67
27768,0.02,-0.43,1.66
27787,0.14,-0.45,1.59
27805,0.17,-0.47,1.42
27824,0.11,-0.49,1.33
27842,-0.01,-0.50,1.33
27861,-0.07,-0.50,1.30
27879,-0.03,-0.50,1.33
27898,0.00,-0.47,1.41
27916,0.10,-0.46,1.42
27935,0.18,-0.44,1.39
27953,0.23,-0.42,1.37
27972,0.22,-0.42,1.37
27990,0.15,-0.41,1.31
28009,0.09,-0.42,1.30
28027,0.05,-0.42,1.27
28046,0.06,-0.43,1.21
28064,0.08,-0.43,1.15
28083,0.10,-0.44,1.05
28101,0.13,-0.44,0.99
28120,0.07,-0.45,0.98
28138,0.01,-0.45,0.89
28157,-0.03,-0.45,0.82
28175,-0.01,-0.46,0.81
28194,-0.04,-0.45,0.75
28212,0.04,-0.47,0.74
28231,0.09,-0.47,0.70
28249,0.04,-0.46,0.55
28268,-0.01,-0.47,0.44
28286,-0.09,-0.46,0.31
28305,-0.17,-0.49,0.31
28323,-0.14,-0.52,0.44
28342,-0.12,-0.51,0.40
28360,-0.10,-0.48,0.28
28379,-0.16,-0.52,0.28
28397,-0.17,-0.50,0.35
28416,-0.10,-0.54,0.34
28434,-0.02,-0.52,0.29
28453,-0.02,-0.51,0.15
28471,-0.03,-0.49,0.05
28490,-0.08,-0.50,-0.04
28508,-0.27,-0.50,-0.03
28527,-0.45,-0.56,0.04
28545,-0.33,-0.53,-0.07
28564,-0.13,-0.53,-0.19
28582,-0.03,-0.51,-0.34
28601,0.05,-0.51,-0.46
28619,0.07,-0.51,-0.52
28638,0.04,-0.51,-0.57
28656,-0.15,-0.52,-0.64
28675,-0.23,-0.50,-0.62
28693,-0.25,-0.47,-0.78
28712,-0.24,-0.46,-1.03
28730,-0.28,-0.45,-1.18
28749,-0.27,-0.41,-1.30
28767,-0.32,-0.40,-1.40
28786,-0.47,-0.43,-1.44
28804,-0.60,-0.42,-1.53
28823,-0.72,-0.43,-1.71
28841,-0.80,-0.43,-1.76
28860,-0.92,-0.45,-1.59
28878,-0.89,-0.47,-1.47
28897,-0.77,-0.48,-1.47
28915,-0.69,-0.49,-1.37
28934,-0.66,-0.51,-1.18
28952,-0.61,-0.53,-1.03
28971,-0.55,-0.56,-1.01
28989,-0.45,-0.56,-0.97
29008,-0.40,-0.59,-0.88
29026,-0.29,-0.59,-0.84
29045,-0.26,-0.59,-0.80
29063,-0.19,-0.60,-0.74
29082,-0.22,-0.61,-0.71
29100,-0.19,-0.63,-0.66
29119,-0.23,-0.64,-0.64
29137,-0.26,-0.64,-0.68
29156,-0.27,-0.65,-0.67
29174,-0.29,-0.63,-0.64
29193,-0.24,-0.61,-0.62
29211,-0.13,-0.59,-0.61
29230,-0.00,-0.58,-0.58
29248,0.12,-0.55,-0.55
29267,0.16,-0.53,-0.48
29285,0.02,-0.52,-0.37
29304,-0.20,-0.52,-0.26
29322,-0.36,-0.54,-0.20
29341,-0.50,-0.55,-0.20
29359,-0.55,-0.53,-0.18
29378,-0.47,-0.51,-0.10
29396,-0.29,-0.46,-0.00
29415,-0.09,-0.41,0.08
29433,0.12,-0.37,0.22
29452,0.37,-0.35,0.46
29470,0.61,-0.36,0.68
29489,0.69,-0.38,0.81
29507,0.46,-0.44,0.96
29526,0.05,-0.51,1.06
29544,-0.22,-0.56,1.02
29563,-0.33,-0.58,0.96
29581,-0.30,-0.58,0.84
29600,-0.14,-0.57,0.76
29618,0.07,-0.57,0.76
29637,0.18,-0.52,0.74
29655,0.20,-0.55,0.58
29674,0.24,-0.49,0.71
29692,0.32,-0.49,0.87
29711,0.39,-0.48,1.03
29729,0.33,-0.50,1.14
29748,0.17,-0.53,1.23
29766,-0.05,-0.57,1.24
29785,-0.22,-0.57,1.12
29803,-0.21,-0.56,0.93
29822,-0.14,-0.51,0.80
29840,-0.03,-0.50,0.74
29859,0.08,-0.48,0.82
29877,0.12,-0.47,0.85
29896,0.15,-0.45,0.88
29914,0.17,-0.43,0.92
29933,0.21,-0.43,0.99
29951,0.15,-0.41,1.06
29970,0.03,-0.40,1.02
29988,-0.17,-0.39,0.97
30007,-0.26,-0.38,0.99
30025,-0.20,-0.36,1.05
30044,-0.07,-0.35,1.15
30062,0.03,-0.32,1.20
30081,0.14,-0.33,1.19
30099,0.17,-0.30,1.23
30118,-0.63,-1.02,1.69
30136,-0.66,-0.57,4.00
30155,2.61,-0.34,4.00
30173,1.57,0.48,-0.66
30192,-0.27,-0.30,-3.02
30210,-1.36,-0.45,-2.32
30229,-0.90,-0.36,0.66
30247,-0.20,-0.38,1.31
30266,0.02,-0.43,0.64
30284,0.09,-0.37,0.49
30303,0.07,-0.50,1.05
30321,0.09,-0.47,2.01
30340,0.29,-0.46,2.30
30358,0.20,-0.41,1.50
30377,-0.10,-0.42,0.57
30395,-0.32,-0.42,0.34
30414,-0.39,-0.44,0.42
30432,-0.36,-0.46,0.67
30451,-0.20,-0.45,0.97
30469,-0.06,-0.43,1.08
30488,-0.00,-0.43,1.01
30506,0.02,-0.41,0.97
30525,-0.03,-0.41,0.93
30543,-0.08,-0.41,0.90
30562,-0.11,-0.41,0.91
30580,-0.13,-0.41,0.90
30599,-0.16,-0.41,0.92
30617,-0.18,-0.41,0.94
30636,-0.14,-0.42,0.96
30654,-0.11,-0.41,0.92
30673,-0.05,-0.41,0.91
30691,-0.01,-0.41,0.92
30710,0.02,-0.41,0.92
30728,0.02,-0.41,0.91
30747,-0.01,-0.42,0.90
30765,-0.02,-0.42,0.92
30784,-0.04,-0.43,0.96
30802,-0.09,-0.43,0.94
30821,-0.08,-0.42,0.91
30839,-0.02,-0.42,0.91
30858,-0.01,-0.42,0.92
30876,0.00,-0.42,0.95
30895,0.00,-0.41,0.92
30913,-0.02,-0.41,0.92
30932,-0.05,-0.41,0.93
30950,-0.07,-0.42,0.93
30969,-0.09,-0.41,0.91
30987,-0.08,-0.41,0.92
31006,-0.06,-0.40,0.92
31024,-0.04,-0.40,0.92
31043,-0.03,-0.41,0.92
31061,-0.03,-0.41,0.95
31080,-0.03,-0.41,0.94
31098,-0.02,-0.41,0.93
31117,-0.03,-0.41,0.91
31135,-0.07,-0.42,0.91
31154,-0.08,-0.42,0.94
31172,-0.08,-0.42,0.94
31191,-0.06,-0.42,0.95
31209,-0.05,-0.41,0.93
31228,-0.05,-0.41,0.92
31246,-0.05,-0.41,0.93
31265,-0.05,-0.41,0.92
31283,-0.07,-0.41,0.93
31302,-0.08,-0.42,0.93
31320,-0.07,-0.42,0.93
31339,-0.08,-0.41,0.92
31357,-0.06,-0.41,0.93
31376,-0.06,-0.41,0.92
31394,-0.05,-0.42,0.91
31413,-0.05,-0.42,0.96
31431,-0.04,-0.42,0.97
31450,-0.02,-0.41,0.93
31468,-0.05,-0.41,0.92
31487,-0.06,-0.41,0.90
31505,-0.08,-0.41,0.90
31524,-0.09,-0.41,0.92
31542,-0.08,-0.41,0.93
31561,-0.07,-0.41,0.96
31579,-0.05,-0.41,0.96
31598,-0.04,-0.41,0.96
31616,-0.05,-0.41,0.97
31635,-0.06,-0.41,1.03
31653,-0.07,-0.40,1.07
31672,-0.03,-0.40,1.12
31690,0.01,-0.40,1.19
31709,0.04,-0.41,1.25
31727,0.05,-0.42,1.29
31746,0.03,-0.42,1.34
31764,0.02,-0.43,1.36
31783,0.06,-0.44,1.39
31801,0.06,-0.45,1.41
31820,0.03,-0.46,1.43
31838,0.02,-0.47,1.42
31857,0.02,-0.46,1.40
31875,0.03,-0.48,1.46
31894,-0.01,-0.46,1.47
31912,0.04,-0.48,1.50
31931,0.03,-0.46,1.48
31949,0.02,-0.45,1.44
31968,0.01,-0.46,1.46
31986,-0.03,-0.46,1.40
32005,-0.05,-0.47,1.31
32023,-0.05,-0.48,1.28
32042,-0.02,-0.48,1.15
32060,0.01,-0.48,1.08
32079,0.02,-0.48,1.04
32097,0.03,-0.49,1.04
32116,0.03,-0.50,0.99
32134,0.02,-0.51,0.92
32153,-0.01,-0.52,0.93
32171,-0.03,-0.52,0.87
32190,-0.05,-0.51,0.78
32208,-0.10,-0.53,0.84
32227,-0.13,-0.52,0.82
32245,-0.13,-0.53,0.70
32264,-0.21,-0.53,0.66
32282,-0.24,-0.52,0.53
32301,-0.22,-0.53,0.45
32319,-0.19,-0.54,0.44
32338,-0.13,-0.55,0.37
32356,0.01,-0.54,0.20
32375,-0.17,-0.50,0.31
32393,-0.11,-0.55,0.23
32412,-0.21,-0.54,0.05
32430,-0.17,-0.55,0.08
32449,-0.14,-0.51,0.11
32467,-0.08,-0.53,0.00
32486,-0.09,-0.52,-0.09
32504,-0.16,-0.54,-0.10
32523,-0.11,-0.54,-0.22
32541,-0.07,-0.53,-0.32
32560,-0.11,-0.55,-0.34
32578,-0.10,-0.53,-0.37
32597,-0.13,-0.54,-0.46
32615,-0.14,-0.52,-0.57
32634,-0.14,-0.53,-0.57
32652,-0.17,-0.54,-0.64
32671,-0.19,-0.54,-0.70
32689,-0.17,-0.55,-0.68
32708,-0.14,-0.58,-0.67
32726,-0.18,-0.58,-0.68
32745,-0.22,-0.59,-0.70
32763,-0.27,-0.59,-0.70
32782,-0.25,-0.60,-0.71
32800,-0.28,-0.60,-0.82
32819,-0.27,-0.59,-0.77
32837,-0.25,-0.59,-0.77
32856,-0.18,-0.56,-0.87
32874,-0.24,-0.53,-1.07
32893,-0.38,-0.53,-1.24
32911,-0.57,-0.53,-1.35
32930,-0.64,-0.51,-1.46
32948,-0.64,-0.50,-1.55
32967,-0.63,-0.50,-1.53
32985,-0.61,-0.49,-1.43
33004,-0.54,-0.48,-1.31
33022,-0.46,-0.50,-1.25
33041,-0.45,-0.53,-1.21
33059,-0.41,-0.55,-1.14
33078,-0.40,-0.57,-1.10
33096,-0.36,-0.60,-1.03
33115,-0.29,-0.61,-0.92
33133,-0.18,-0.60,-0.88
33152,-0.08,-0.59,-0.84
33170,-0.05,-0.58,-0.80
33189,-0.03,-0.57,-0.77
33207,-0.00,-0.56,-0.75
33226,0.01,-0.57,-0.80
33244,-0.01,-0.55,-0.88
33263,-0.06,-0.56,-0.83
33281,-0.15,-0.55,-0.76
33300,-0.23,-0.54,-0.66
33318,-0.31,-0.57,-0.60
33337,-0.36,-0.57,-0.54
33355,-0.34,-0.58,-0.47
33374,-0.26,-0.59,-0.40
33392,-0.19,-0.60,-0.38
33411,-0.12,-0.60,-0.37
33429,-0.19,-0.60,-0.31
33448,-0.36,-0.61,-0.13
33466,-0.42,-0.62,-0.00
33485,-0.34,-0.64,0.09
33503,-0.20,-0.65,0.14
33522,-0.04,-0.64,0.16
33540,-0.01,-0.64,0.15
33559,0.01,-0.64,0.17
33577,0.02,-0.65,0.26
33596,0.09,-0.64,0.29
33614,0.11,-0.63,0.27
33633,0.09,-0.62,0.28
33651,0.02,-0.61,0.36
33670,-0.03,-0.60,0.45
33688,-0.06,-0.61,0.48
33707,-0.08,-0.59,0.50
33725,-0.01,-0.58,0.52
33744,0.06,-0.53,0.59
33762,0.12,-0.52,0.64
33781,0.14,-0.53,0.69
33799,0.22,-0.53,0.75
33818,0.30,-0.48,0.82
33836,0.17,-0.47,0.82
33855,-0.11,-0.54,0.99
33873,-0.19,-0.52,1.08
33892,-0.10,-0.60,0.89
33910,-0.09,-0.49,0.75
33929,-0.06,-0.52,0.76
33947,0.01,-0.49,0.79
33966,0.12,-0.48,0.81
33984,0.18,-0.48,0.85
34003,0.27,-0.46,0.94
34021,0.33,-0.43,0.98
34040,0.13,-0.44,1.09
34058,-0.12,-0.44,1.19
34077,-0.28,-0.46,1.23
34095,-0.30,-0.45,1.18
34114,-0.23,-0.43,1.11
34132,-0.17,-0.41,1.06
34151,-0.12,-0.35,0.95
34169,-0.09,-0.33,1.02
34188,-0.04,-0.31,1.12
34206,0.05,-0.31,1.19
34225,-0.05,-0.31,1.36
34243,-0.46,-0.39,1.66
34262,-1.64,-0.42,4.00
34280,1.88,1.16,4.00
34299,1.33,-0.31,0.80
34317,-0.54,-0.36,-2.35
34336,-1.08,-0.36,-1.70
34354,-0.35,-0.44,0.87
34373,-0.01,-0.39,1.21
34391,0.03,-0.41,0.40
34410,-0.04,-0.38,0.44
34428,0.22,-0.38,0.80
34447,0.27,-0.38,0.76
34465,0.10,-0.37,0.57
34484,-0.11,-0.36,0.58
34502,-0.25,-0.49,0.99
34521,-0.31,-0.45,1.78
34539,0.01,-0.45,2.22
34558,0.20,-0.43,1.55
34576,-0.06,-0.39,0.52
34595,-0.09,-0.39,0.38
34613,0.09,-0.38,0.74
34632,0.12,-0.38,0.75
34650,0.05,-0.38,0.79
34669,0.01,-0.38,0.92
34687,-0.04,-0.39,1.02
34706,-0.08,-0.41,1.07
34724,-0.12,-0.40,1.09
34743,-0.09,-0.41,1.04
34761,-0.07,-0.40,0.91
34780,-0.04,-0.40,0.87
34798,-0.00,-0.39,0.86
34817,0.01,-0.39,0.86
34835,-0.01,-0.40,0.90
34854,-0.02,-0.40,0.97
34872,-0.01,-0.40,1.00
34891,-0.03,-0.40,0.96
34909,-0.02,-0.40,0.95
34928,-0.01,-0.39,0.94
34946,0.00,-0.39,0.95
34965,0.00,-0.40,0.94
34983,-0.02,-0.39,0.90
35002,-0.03,-0.39,0.89
35020,-0.03,-0.40,0.95
35039,-0.02,-0.41,0.99
35057,-0.02,-0.40,0.95
35076,-0.03,-0.40,0.89
35094,-0.03,-0.39,0.92
35113,-0.02,-0.39,0.95
35131,-0.01,-0.40,0.95
35150,-0.01,-0.39,0.95
35168,-0.03,-0.39,0.94
35187,-0.06,-0.39,0.91
35205,-0.04,-0.39,0.92
35224,-0.03,-0.39,0.91
35242,-0.02,-0.39,0.92
35261,-0.02,-0.39,0.96
35279,-0.02,-0.40,0.96
35298,-0.03,-0.40,0.94
35316,-0.03,-0.40,0.93
35335,-0.03,-0.40,0.94
35353,-0.03,-0.40,0.94
35372,-0.04,-0.40,0.89
35390,-0.03,-0.40,0.89
35409,-0.02,-0.40,0.94
35427,-0.03,-0.40,0.96
35446,-0.04,-0.40,0.95
35464,-0.02,-0.39,0.94
35483,-0.03,-0.40,0.93
35501,-0.04,-0.40,0.94
35520,-0.03,-0.39,0.92
35538,-0.04,-0.39,0.92
35557,-0.04,-0.39,0.92
35575,-0.05,-0.39,0.94
35594,-0.04,-0.39,0.99
35612,-0.04,-0.37,0.98
35631,-0.02,-0.38,1.03
35649,0.01,-0.38,1.09
35668,0.02,-0.39,1.15
35686,0.12,-0.38,1.23
35705,0.03,-0.38,1.22
35723,0.05,-0.40,1.32
35742,-0.03,-0.41,1.43
35760,-0.08,-0.41,1.50
35779,-0.09,-0.43,1.59
35797,0.02,-0.45,1.69
35816,0.08,-0.46,1.80
35834,0.13,-0.46,1.73
35853,0.11,-0.45,1.63
35871,0.09,-0.46,1.50
35890,-0.01,-0.46,1.34
35908,-0.07,-0.46,1.20
35927,-0.08,-0.46,1.20
35945,0.02,-0.48,1.20
35964,0.06,-0.49,1.18
35982,0.09,-0.49,1.18
36001,0.15,-0.50,1.17
36019,0.12,-0.50,1.12
36038,0.08,-0.51,1.06
36056,0.05,-0.51,0.96
36075,0.04,-0.52,0.87
36093,-0.03,-0.52,0.80
36112,-0.01,-0.53,0.77
36130,-0.08,-0.56,0.83
36149,-0.08,-0.56,0.76
36167,-0.00,-0.56,0.72
36186,0.06,-0.56,0.70
36204,0.08,-0.56,0.67
36223,0.09,-0.57,0.72
36241,0.05,-0.58,0.71
36260,-0.03,-0.58,0.65
36278,-0.06,-0.58,0.57
36297,-0.12,-0.59,0.46
36315,-0.17,-0.60,0.34
36334,-0.21,-0.62,0.27
36352,-0.17,-0.62,0.30
36371,-0.17,-0.64,0.32
36389,-0.11,-0.63,0.28
36408,-0.11,-0.62,0.20
36426,0.05,-0.62,0.22
36445,0.06,-0.61,0.14
36463,-0.06,-0.60,0.09
36482,-0.06,-0.63,-0.08
36500,-0.12,-0.63,-0.15
36519,-0.24,-0.66,-0.20
36537,-0.27,-0.68,-0.25
36556,-0.22,-0.71,-0.26
36574,-0.19,-0.71,-0.21
36593,-0.18,-0.74,-0.18
36611,-0.10,-0.75,-0.16
36630,0.00,-0.73,-0.13
36648,0.08,-0.72,-0.10
36667,0.03,-0.72,-0.03
36685,0.00,-0.70,-0.03
36704,0.03,-0.66,-0.21
36722,0.01,-0.65,-0.42
36741,-0.12,-0.62,-0.54
36759,-0.21,-0.62,-0.55
36778,-0.19,-0.58,-0.64
36796,-0.17,-0.57,-0.70
36815,-0.13,-0.54,-0.80
36833,-0.16,-0.52,-0.85
36852,-0.16,-0.50,-0.94
36870,-0.22,-0.47,-1.10
36889,-0.31,-0.48,-1.28
36907,-0.42,-0.47,-1.35
36926,-0.49,-0.49,-1.36
36944,-0.53,-0.48,-1.38
36963,-0.57,-0.47,-1.44
36981,-0.61,-0.47,-1.45
37000,-0.62,-0.48,-1.35
37018,-0.55,-0.47,-1.24
37037,-0.51,-0.51,-1.13
37055,-0.40,-0.52,-0.98
37074,-0.35,-0.54,-1.03
37092,-0.33,-0.58,-0.93
37111,-0.33,-0.62,-0.80
37129,-0.30,-0.67,-0.76
37148,-0.26,-0.68,-0.70
37166,-0.20,-0.70,-0.64
37185,-0.18,-0.74,-0.50
37203,-0.15,-0.76,-0.48
37222,-0.12,-0.77,-0.50
37240,-0.08,-0.77,-0.53
37259,-0.06,-0.78,-0.52
37277,-0.10,-0.77,-0.56
37296,-0.14,-0.76,-0.66
37314,-0.12,-0.75,-0.69
37333,-0.13,-0.73,-0.74
37351,-0.21,-0.72,-0.70
37370,-0.30,-0.71,-0.66
37388,-0.37,-0.72,-0.64
37407,-0.47,-0.72,-0.51
37425,-0.47,-0.72,-0.50
37444,-0.39,-0.72,-0.49
37462,-0.28,-0.71,-0.52
37481,-0.18,-0.68,-0.54
37499,-0.11,-0.66,-0.58
37518,-0.02,-0.64,-0.60
37536,-0.01,-0.61,-0.63
37555,-0.14,-0.59,-0.61
37573,-0.31,-0.58,-0.40
37592,-0.50,-0.61,-0.15
37610,-0.56,-0.63,-0.01
37629,-0.46,-0.62,-0.01
37647,-0.28,-0.61,-0.06
37666,-0.08,-0.58,-0.10
37684,0.09,-0.57,-0.08
37703,0.17,-0.52,-0.09
37721,0.25,-0.51,-0.05
37740,0.27,-0.46,0.08
37758,0.26,-0.42,0.24
37777,0.18,-0.44,0.50
37795,0.05,-0.47,0.74
37814,-0.10,-0.49,0.88
37832,-0.19,-0.52,0.99
37851,-0.22,-0.59,1.06
37869,-0.14,-0.57,0.99
37888,0.05,-0.59,0.95
37906,0.21,-0.53,0.96
37925,0.40,-0.56,0.85
37943,0.37,-0.55,0.73
37962,0.36,-0.50,0.92
37980,0.13,-0.54,0.96
37999,-0.05,-0.54,1.03
38017,-0.31,-0.59,1.19
38036,-0.38,-0.60,1.14
38054,-0.26,-0.59,1.02
38073,-0.15,-0.57,0.89
38091,-0.14,-0.54,0.73
38110,-0.16,-0.53,0.68
38128,-0.08,-0.51,0.76
38147,-0.00,-0.52,0.94
38165,0.11,-0.49,1.00
38184,0.10,-0.49,1.01
38202,-0.03,-0.49,1.05
38221,-0.14,-0.47,1.03
38239,-0.18,-0.46,1.02
38258,-0.19,-0.45,0.94
38276,-0.12,-0.41,0.95
38295,-0.12,-0.39,1.02
38313,-0.11,-0.37,1.01
38332,-0.12,-0.37,1.06
38350,-0.16,-0.36,1.10
38369,-0.38,-0.33,1.23
38387,-1.80,-0.87,4.00
38406,1.24,0.43,4.00
38424,1.58,-0.19,2.28
38443,-0.20,-0.30,-1.85
38461,-0.93,-0.38,-2.03
38480,-0.20,-0.42,0.48
38498,-0.12,-0.44,0.92
38517,-0.13,-0.42,0.45
38535,-0.14,-0.40,0.35
38554,0.02,-0.40,0.55
38572,0.09,-0.39,0.69
38591,0.03,-0.44,0.88
38609,-0.12,-0.47,1.09
38628,-0.11,-0.47,1.38
38646,0.01,-0.48,1.54
38665,0.04,-0.47,1.61
38683,0.06,-0.45,1.09
38702,-0.02,-0.42,0.53
38720,-0.03,-0.41,0.58
38739,0.02,-0.41,0.74
38757,0.08,-0.40,0.80
38776,0.09,-0.40,0.93
38794,0.09,-0.41,1.04
38813,0.06,-0.42,1.07
38831,0.05,-0.42,1.02
38850,-0.00,-0.43,0.93
38868,-0.06,-0.44,0.84
38887,-0.02,-0.44,0.87
38905,-0.00,-0.44,0.93
38924,0.01,-0.44,0.94
38942,0.03,-0.43,0.94
38961,0.03,-0.43,0.93
38979,-0.01,-0.43,0.91
38998,-0.03,-0.44,0.91
39016,-0.01,-0.43,0.92
39035,0.01,-0.44,0.92
39053,-0.01,-0.42,0.93
39072,0.00,-0.42,0.91
39090,0.01,-0.42,0.94
39109,0.00,-0.42,0.93
39127,-0.02,-0.43,0.93
39146,-0.01,-0.43,0.91
39164,-0.01,-0.43,0.91
39183,-0.03,-0.43,0.92
39201,-0.04,-0.43,0.91
39220,-0.03,-0.43,0.91
39238,0.03,-0.41,0.92
39257,-0.01,-0.42,0.94
39275,0.01,-0.43,0.94
39294,0.01,-0.42,0.92
39312,0.02,-0.43,0.94
39331,0.01,-0.42,0.93
39349,0.02,-0.43,0.92
39368,0.02,-0.43,0.93
39386,-0.00,-0.43,0.93
39405,-0.03,-0.42,0.91
39423,-0.02,-0.42,0.92
39442,-0.03,-0.43,0.92
39460,0.00,-0.43,0.92
39479,-0.01,-0.42,0.91
39497,-0.01,-0.43,0.93
39516,-0.00,-0.43,0.93
39534,-0.02,-0.43,0.94
39553,-0.04,-0.43,0.92
39571,-0.03,-0.43,0.90
39590,-0.01,-0.43,0.93
39608,0.00,-0.43,0.94
39627,0.02,-0.42,0.94
39645,0.00,-0.42,0.92
39664,-0.01,-0.42,0.92
39682,-0.02,-0.42,0.92
39701,-0.02,-0.43,0.92
39719,-0.03,-0.42,0.92
39738,-0.02,-0.43,0.93
39756,-0.02,-0.43,0.91
39775,-0.01,-0.43,0.93
39793,0.00,-0.43,0.91
39812,0.01,-0.43,0.93
39830,0.02,-0.43,0.94
39849,-0.00,-0.43,0.93
39867,-0.02,-0.42,0.93
39886,-0.03,-0.43,0.93
39904,-0.03,-0.42,0.93
39923,-0.03,-0.42,0.94
39941,0.01,-0.42,0.95
39960,0.03,-0.42,0.96
39978,0.05,-0.42,1.02
39997,0.04,-0.42,1.09
40015,0.01,-0.42,1.10
40034,0.00,-0.43,1.09
40052,-0.02,-0.43,1.06
40071,-0.03,-0.44,1.13
40089,-0.03,-0.45,1.21
40108,-0.03,-0.45,1.29
40126,0.03,-0.46,1.44
40145,0.11,-0.47,1.45
40163,0.19,-0.47,1.50
40182,0.13,-0.48,1.41
40200,0.10,-0.49,1.37
40219,0.01,-0.49,1.37
40237,-0.06,-0.51,1.39
40256,-0.11,-0.50,1.34
40274,0.02,-0.48,1.34
40293,0.11,-0.46,1.32
40311,0.20,-0.46,1.36
40330,0.25,-0.46,1.43
40348,0.24,-0.47,1.46
40367,0.22,-0.45,1.42
40385,0.16,-0.47,1.34
40404,0.11,-0.46,1.25
40422,0.13,-0.47,1.06
40441,0.10,-0.45,1.06
40459,0.07,-0.48,1.07
40478,0.08,-0.48,1.08
40496,0.07,-0.49,1.06
40515,0.12,-0.50,1.02
40533,0.16,-0.48,0.99
40552,0.16,-0.48,0.93
40570,0.16,-0.47,0.84
40589,0.07,-0.49,0.79
40607,-0.04,-0.49,0.72
40626,-0.10,-0.50,0.61
40644,-0.11,-0.52,0.60
40663,-0.05,-0.52,0.61
40681,0.01,-0.52,0.58
40700,-0.02,-0.49,0.46
40718,-0.10,-0.51,0.41
40737,-0.13,-0.52,0.36
40755,-0.17,-0.52,0.23
40774,-0.08,-0.53,0.19
40792,-0.01,-0.54,0.09
40811,-0.07,-0.53,0.18
40829,-0.10,-0.51,0.11
40848,-0.09,-0.53,0.09
40866,-0.12,-0.55,0.04
40885,-0.19,-0.54,-0.03
40903,-0.20,-0.53,-0.08
40922,-0.11,-0.55,-0.11
40940,-0.01,-0.52,-0.28
40959,-0.00,-0.52,-0.36
40977,-0.12,-0.54,-0.43
40996,-0.26,-0.54,-0.54
41014,-0.34,-0.55,-0.51
41033,-0.43,-0.56,-0.42
41051,-0.39,-0.56,-0.37
41070,-0.22,-0.52,-0.52
41088,-0.07,-0.47,-0.69
41107,-0.00,-0.46,-0.78
41125,-0.01,-0.43,-0.83
41144,-0.11,-0.41,-0.99
41162,-0.24,-0.39,-1.21
41181,-0.28,-0.36,-1.38
41199,-0.38,-0.35,-1.59
41218,-0.48,-0.34,-1.73
41236,-0.57,-0.35,-1.64
41255,-0.67,-0.39,-1.60
41273,-0.66,-0.41,-1.55
41292,-0.62,-0.43,-1.52
41310,-0.53,-0.46,-1.48
41329,-0.51,-0.48,-1.30
41347,-0.48,-0.51,-1.14
41366,-0.41,-0.55,-1.09
41384,-0.36,-0.58,-0.98
41403,-0.34,-0.62,-0.90
41421,-0.33,-0.64,-0.85
41440,-0.26,-0.64,-0.82
41458,-0.20,-0.63,-0.74
41477,-0.12,-0.64,-0.67
41495,-0.03,-0.62,-0.68
41514,0.06,-0.61,-0.72
41532,0.11,-0.62,-0.76
41551,0.07,-0.63,-0.79
41569,-0.04,-0.61,-0.84
41588,-0.19,-0.62,-0.87
41606,-0.31,-0.62,-0.88
41625,-0.41,-0.64,-0.79
41643,-0.46,-0.64,-0.68
41662,-0.48,-0.64,-0.58
41680,-0.41,-0.63,-0.55
41699,-0.31,-0.63,-0.53
41717,-0.23,-0.61,-0.47
41736,-0.16,-0.62,-0.48
41754,-0.16,-0.61,-0.49
41773,-0.15,-0.60,-0.51
41791,-0.19,-0.57,-0.47
41810,-0.30,-0.55,-0.28
41828,-0.45,-0.55,-0.02
41847,-0.45,-0.56,0.20
41865,-0.28,-0.57,0.32
41884,-0.14,-0.58,0.32
41902,0.01,-0.57,0.29
41921,0.10,-0.57,0.22
41939,0.20,-0.57,0.18
41958,0.28,-0.56,0.12
41976,0.36,-0.53,0.11
41995,0.22,-0.48,0.17
42013,-0.08,-0.47,0.40
42032,-0.34,-0.47,0.66
42050,-0.48,-0.50,0.83
42069,-0.36,-0.50,0.86
42087,-0.20,-0.50,0.79
42106,-0.08,-0.50,0.70
42124,0.02,-0.49,0.60
42143,0.03,-0.48,0.53
42161,0.03,-0.45,0.57
42180,-0.07,-0.47,0.66
42198,-0.11,-0.42,0.89
42217,-0.07,-0.43,1.08
42235,-0.05,-0.45,1.11
42254,-0.07,-0.43,1.25
42272,0.07,-0.45,1.26
42291,0.17,-0.49,1.11
42309,0.16,-0.48,1.03
42328,0.17,-0.49,1.07
42346,0.25,-0.50,1.11
42365,0.25,-0.48,1.12
42383,0.07,-0.49,1.16
42402,-0.12,-0.48,1.23
42420,-0.31,-0.47,1.28
42439,-0.32,-0.47,1.29
42457,-0.20,-0.43,1.30
42476,-0.05,-0.42,1.26
42494,0.03,-0.43,1.27
42513,0.08,-0.41,1.24
42531,0.03,-0.41,1.16
42550,0.03,-0.39,1.13
42568,-0.02,-0.34,1.11
42587,-0.26,-0.32,1.24
42605,-0.75,-0.70,3.54
42624,0.92,0.09,4.00
42642,0.85,-0.23,1.90
42661,-0.61,-0.33,-1.36
42679,-0.78,-0.36,-0.83
42698,-0.08,-0.37,0.92
42716,0.14,-0.37,0.74
42735,0.08,-0.34,0.31
42753,0.07,-0.36,0.55
42772,0.10,-0.36,0.76
42790,0.09,-0.36,0.92
42809,0.01,-0.37,1.03
42827,-0.14,-0.41,1.41
42846,0.01,-0.37,2.10
42864,0.11,-0.37,1.45
42883,-0.12,-0.36,0.48
42901,-0.17,-0.37,0.49
42920,-0.14,-0.38,0.72
42938,-0.16,-0.38,0.82
42957,-0.16,-0.38,0.95
42975,-0.11,-0.39,1.11
42994,-0.06,-0.38,1.08
43012,-0.07,-0.38,1.01
43031,-0.08,-0.38,0.89
43049,-0.11,-0.39,0.86
43068,-0.11,-0.39,0.90
43086,-0.09,-0.38,0.92
43105,-0.06,-0.38,0.95
43123,-0.03,-0.38,0.99
43142,-0.03,-0.38,0.95
43160,-0.05,-0.38,0.95
43179,-0.03,-0.37,0.95
43197,-0.00,-0.38,0.95
43216,0.03,-0.37,0.95
43234,0.02,-0.37,0.93
43253,0.01,-0.37,0.95
43271,-0.01,-0.37,0.94
43290,-0.02,-0.37,0.92
43308,-0.03,-0.37,0.95
43327,-0.03,-0.37,0.97
43345,-0.01,-0.37,0.97
43364,-0.01,-0.37,0.96
43382,-0.01,-0.37,0.95
43401,-0.01,-0.37,0.92
43419,-0.03,-0.37,0.93
43438,-0.04,-0.37,0.94
43456,-0.04,-0.38,0.97
43475,-0.04,-0.38,0.97
43493,0.00,-0.38,0.92
43512,-0.01,-0.37,0.98
43530,-0.01,-0.36,0.93
43549,-0.02,-0.37,0.93
43567,-0.03,-0.37,0.93
43586,-0.02,-0.37,0.96
43604,-0.01,-0.37,0.95
43623,-0.02,-0.37,0.95
43641,-0.00,-0.37,0.96
43660,0.00,-0.37,0.95
43678,0.00,-0.37,0.95
43697,-0.01,-0.37,0.93
43715,-0.03,-0.37,0.94
43734,-0.03,-0.37,0.96
43752,-0.03,-0.37,0.94
43771,-0.03,-0.37,0.96
43789,-0.04,-0.37,0.95
43808,-0.01,-0.37,0.95
43826,-0.01,-0.37,0.93
43845,-0.00,-0.37,0.94
43863,-0.03,-0.37,0.95
43882,-0.04,-0.37,0.93
43900,-0.05,-0.37,0.95
43919,-0.05,-0.37,0.95
43937,-0.04,-0.37,0.96
43956,-0.03,-0.37,0.95
43974,-0.02,-0.38,0.95
43993,-0.03,-0.37,0.94
44011,-0.03,-0.37,0.94
44030,-0.04,-0.37,0.95
44048,-0.04,-0.36,0.96
44067,-0.05,-0.36,1.00
44085,-0.01,-0.36,0.99
44104,0.01,-0.37,1.01
44122,0.02,-0.38,1.02
44141,-0.02,-0.38,1.07
44159,-0.06,-0.39,1.11
44178,-0.10,-0.39,1.13
44196,-0.09,-0.37,1.14
44215,-0.14,-0.38,1.19
44233,-0.13,-0.38,1.28
44252,-0.04,-0.39,1.37
44270,0.05,-0.40,1.45
44289,0.04,-0.41,1.47
44307,0.02,-0.41,1.46
44326,-0.02,-0.42,1.41
44344,-0.06,-0.42,1.36
44363,-0.03,-0.43,1.28
44381,-0.09,-0.43,1.28
44400,-0.04,-0.45,1.26
44418,-0.05,-0.45,1.28
44437,0.02,-0.46,1.28
44455,0.03,-0.47,1.26
44474,0.04,-0.48,1.26
44492,0.04,-0.47,1.24
44511,0.00,-0.49,1.24
44529,-0.04,-0.49,1.19
44548,-0.06,-0.50,1.10
44566,-0.08,-0.50,1.05
44585,-0.01,-0.52,1.01
44603,0.04,-0.51,0.95
44622,0.02,-0.52,0.93
44640,-0.03,-0.53,0.96
44659,-0.10,-0.56,1.02
44677,-0.11,-0.56,0.95
44696,-0.03,-0.58,0.89
44714,0.05,-0.58,0.86
44733,0.05,-0.58,0.82
44751,-0.02,-0.57,0.73
44770,-0.11,-0.59,0.70
44788,-0.16,-0.60,0.63
44807,-0.16,-0.61,0.60
44825,-0.14,-0.61,0.60
44844,-0.12,-0.62,0.58
44862,-0.07,-0.63,0.55
44881,-0.08,-0.62,0.46
44899,-0.13,-0.63,0.43
44918,-0.20,-0.63,0.36
44936,-0.18,-0.64,0.36
44955,-0.13,-0.64,0.34
44973,-0.10,-0.63,0.29
44992,-0.09,-0.61,0.21
45010,-0.12,-0.63,0.19
45029,-0.10,-0.61,0.05
45047,-0.12,-0.63,-0.04
45066,-0.12,-0.62,-0.03
45084,-0.10,-0.62,-0.13
45103,-0.12,-0.62,-0.18
45121,-0.08,-0.62,-0.19
45140,-0.11,-0.63,-0.21
45158,-0.10,-0.63,-0.22
45177,-0.09,-0.64,-0.20
45195,-0.14,-0.65,-0.19
45214,-0.13,-0.65,-0.25
45232,-0.07,-0.63,-0.27
45251,-0.02,-0.63,-0.33
45269,-0.02,-0.60,-0.44
45288,-0.08,-0.60,-0.46
45306,-0.09,-0.59,-0.53
45325,-0.19,-0.62,-0.44
45343,-0.18,-0.61,-0.45
45362,-0.14,-0.56,-0.67
45380,-0.10,-0.55,-0.77
45399,-0.13,-0.50,-0.88
45417,-0.17,-0.48,-1.06
45436,-0.24,-0.48,-1.17
45454,-0.28,-0.44,-1.33
45473,-0.35,-0.42,-1.44
45491,-0.42,-0.43,-1.48
45510,-0.46,-0.42,-1.52
45528,-0.46,-0.41,-1.61
45547,-0.46,-0.41,-1.66
45565,-0.47,-0.43,-1.59
45584,-0.46,-0.46,-1.41
45602,-0.48,-0.50,-1.27
45621,-0.44,-0.53,-1.20
45639,-0.38,-0.56,-1.06
45658,-0.35,-0.59,-0.92
45676,-0.26,-0.61,-0.86
45695,-0.23,-0.62,-0.77
45713,-0.15,-0.64,-0.68
45732,-0.10,-0.63,-0.68
45750,-0.02,-0.64,-0.71
45769,-0.03,-0.62,-0.73
45787,-0.02,-0.64,-0.76
45806,-0.05,-0.62,-0.80
45824,-0.08,-0.64,-0.80
45843,-0.13,-0.63,-0.78
45861,-0.22,-0.62,-0.78
45880,-0.26,-0.64,-0.79
45898,-0.26,-0.66,-0.78
45917,-0.28,-0.64,-0.74
45935,-0.25,-0.67,-0.68
45954,-0.20,-0.65,-0.60
45972,-0.17,-0.65,-0.52
45991,-0.16,-0.65,-0.42
46009,-0.18,-0.65,-0.33
46028,-0.21,-0.65,-0.31
46046,-0.24,-0.65,-0.29
46065,-0.20,-0.65,-0.29
46083,-0.16,-0.62,-0.32
46102,-0.20,-0.62,-0.25
46120,-0.20,-0.61,-0.15
46139,-0.15,-0.58,-0.05
46157,-0.04,-0.58,0.05
46176,0.09,-0.55,0.17
46194,0.16,-0.56,0.31
46213,0.10,-0.58,0.48
46231,0.00,-0.61,0.60
46250,-0.10,-0.63,0.61
46268,-0.09,-0.65,0.57
46287,-0.08,-0.65,0.42
46305,-0.08,-0.65,0.36
46324,-0.04,-0.64,0.35
46342,-0.04,-0.62,0.38
46361,-0.02,-0.61,0.51
46379,0.00,-0.61,0.66
46398,0.09,-0.61,0.83
46416,0.09,-0.64,1.00
46435,0.05,-0.66,1.08
46453,-0.02,-0.68,1.06
46472,-0.12,-0.70,0.95
46490,-0.18,-0.69,0.71
46509,-0.29,-0.67,0.59
46527,-0.23,-0.65,0.54
46546,-0.16,-0.67,0.51
46564,-0.03,-0.58,0.59
46583,0.03,-0.59,0.69
46601,0.10,-0.54,0.81
46620,0.22,-0.56,0.95
46638,0.13,-0.56,1.14
46657,-0.04,-0.58,1.04
46675,-0.10,-0.55,0.95
46694,-0.10,-0.55,0.88
46712,-0.06,-0.53,0.82
46731,-0.03,-0.51,0.80
46749,0.02,-0.50,0.87
46768,0.02,-0.47,0.93
46786,0.11,-0.46,1.06
46805,0.18,-0.45,1.15
46823,0.18,-0.45,1.21
46842,0.20,-0.45,1.25
46860,0.15,-0.44,1.24
46879,-0.03,-0.43,1.19
46897,-0.22,-0.45,1.14
46916,-0.38,-0.42,1.05
46934,-0.47,-0.43,0.97
46953,-0.41,-0.41,0.89
46971,-0.31,-0.38,0.84
46990,-0.19,-0.36,0.92
47008,-0.10,-0.34,0.99
47027,-0.51,-0.57,1.46
47045,1.02,-0.20,4.00
47064,2.21,0.09,3.39
47082,-0.04,-0.37,0.22
47101,-1.48,-0.45,-0.43
47119,-0.70,-0.40,0.62
47138,-0.05,-0.42,0.78
47156,-0.24,-0.38,0.53
47175,-0.10,-0.39,0.78
47193,0.10,-0.38,0.91
47212,0.11,-0.39,1.02
47230,-0.01,-0.40,1.04
47249,-0.03,-0.40,0.99
47267,-0.01,-0.39,1.01
47286,0.02,-0.38,1.10
47304,0.01,-0.37,1.08
47323,-0.03,-0.37,1.08
47341,-0.10,-0.36,1.04
47360,-0.16,-0.36,0.96
47378,-0.14,-0.36,0.91
47397,-0.09,-0.35,0.93
47415,-0.03,-0.35,0.94
47434,0.03,-0.35,0.93
47452,0.06,-0.35,0.92
47471,0.06,-0.35,0.90
47489,0.04,-0.36,0.89
47508,0.03,-0.36,0.90
47526,0.00,-0.36,0.93
47545,0.00,-0.37,0.96
47563,0.02,-0.37,0.97
47582,0.02,-0.37,0.98
47600,0.03,-0.37,0.97
47619,0.02,-0.37,0.95
47637,0.01,-0.37,0.95
47656,0.00,-0.37,0.96
47674,-0.00,-0.36,0.94
47693,0.01,-0.36,0.94
47711,0.02,-0.37,0.97
47730,0.05,-0.37,0.97
47748,0.02,-0.37,0.95
47767,-0.01,-0.36,0.93
47785,-0.02,-0.39,0.90
47804,0.03,-0.35,0.96
47822,-0.01,-0.36,0.93
47841,0.02,-0.36,0.99
47859,0.02,-0.38,0.97
47878,0.00,-0.37,0.95
47896,-0.01,-0.38,0.94
47915,0.02,-0.36,0.93
47933,-0.02,-0.37,0.93
47952,-0.03,-0.38,0.94
47970,-0.01,-0.37,0.96
47989,-0.00,-0.38,0.94
48007,0.01,-0.37,0.95
48026,0.03,-0.37,0.94
48044,0.03,-0.37,0.94
48063,0.02,-0.37,0.94
48081,0.02,-0.37,0.93
48100,-0.00,-0.37,0.95
48118,-0.02,-0.37,0.95
48137,-0.02,-0.37,0.95
48155,-0.00,-0.38,0.93
48174,-0.00,-0.37,0.94
48192,0.01,-0.37,0.95
48211,0.02,-0.37,0.95
48229,0.03,-0.38,0.96
48248,0.02,-0.37,0.95
48266,0.02,-0.37,0.94
48285,-0.00,-0.37,0.95
48303,-0.01,-0.37,0.95
48322,-0.01,-0.37,0.96
48340,-0.01,-0.38,0.95
48359,-0.02,-0.37,0.93
48377,-0.03,-0.37,0.90
48396,-0.03,-0.38,0.91
48414,-0.03,-0.38,0.91
48433,-0.02,-0.39,0.96
48451,-0.01,-0.39,0.97
48470,-0.03,-0.39,0.96
48488,-0.03,-0.39,0.95
48507,-0.01,-0.38,0.94
48525,-0.04,-0.39,0.95
48544,-0.04,-0.39,0.93
48562,-0.02,-0.39,0.93
48581,-0.02,-0.39,0.96
48599,-0.03,-0.39,0.98
48618,-0.02,-0.39,0.98
48636,-0.01,-0.38,0.96
48655,-0.01,-0.38,0.94
48673,-0.03,-0.39,0.95
48692,-0.04,-0.38,0.92
48710,-0.03,-0.39,0.92
48729,-0.03,-0.39,0.94
48747,-0.06,-0.39,0.98
48766,-0.05,-0.39,1.06
48784,-0.03,-0.39,1.13
48803,-0.02,-0.39,1.17
48821,-0.02,-0.39,1.18
48840,-0.04,-0.40,1.21
48858,-0.04,-0.41,1.50
48877,-0.01,-0.43,1.55
48895,-0.06,-0.43,1.53
48914,-0.05,-0.43,1.59
48932,0.02,-0.43,1.52
48951,0.08,-0.44,1.50
48969,0.09,-0.43,1.41
48988,0.06,-0.44,1.38
49006,0.01,-0.45,1.36
49025,0.04,-0.46,1.35
49043,0.07,-0.46,1.29
49062,-0.01,-0.46,1.28
49080,-0.02,-0.47,1.28
49099,0.04,-0.47,1.29
49117,0.12,-0.47,1.25
49136,0.11,-0.46,1.19
49154,0.11,-0.46,1.26
49173,0.10,-0.46,1.27
49191,0.13,-0.46,1.31
49210,0.12,-0.46,1.31
49228,0.14,-0.47,1.17
49247,0.10,-0.47,1.06
49265,-0.02,-0.48,1.06
49284,-0.04,-0.50,0.97
49302,0.00,-0.49,0.96
49321,0.05,-0.49,0.93
49339,0.03,-0.48,0.90
49358,-0.00,-0.49,0.68
49376,-0.05,-0.49,0.77
49395,-0.15,-0.48,0.67
49413,-0.13,-0.48,0.51
49432,-0.08,-0.47,0.40
49450,-0.03,-0.49,0.45
49469,0.02,-0.50,0.49
49487,0.03,-0.49,0.44
49506,0.00,-0.49,0.40
49524,0.03,-0.48,0.38
49543,0.08,-0.49,0.27
49561,-0.15,-0.42,0.38
49580,-0.07,-0.49,0.18
49598,-0.12,-0.47,0.01
49617,-0.10,-0.50,0.03
49635,-0.06,-0.51,0.07
49654,-0.05,-0.50,-0.07
49672,-0.05,-0.51,-0.10
49691,-0.06,-0.51,-0.14
49709,-0.05,-0.51,-0.19
49728,-0.02,-0.50,-0.18
49746,-0.09,-0.51,-0.12
49765,-0.12,-0.50,-0.16
49783,-0.14,-0.47,-0.30
49802,-0.12,-0.43,-0.45
49820,-0.02,-0.40,-0.72
49839,-0.04,-0.38,-0.86
49857,-0.07,-0.35,-0.86
49876,-0.18,-0.38,-0.81
49894,-0.28,-0.33,-1.00
49913,-0.18,-0.34,-1.12
49931,-0.17,-0.33,-1.29
49950,-0.25,-0.32,-1.49
49968,-0.30,-0.31,-1.62
49987,-0.35,-0.32,-1.61
50005,-0.43,-0.35,-1.57
50024,-0.47,-0.37,-1.48
50042,-0.52,-0.39,-1.44
50061,-0.52,-0.41,-1.40
50079,-0.52,-0.43,-1.38
50098,-0.45,-0.43,-1.44
50116,-0.44,-0.42,-1.30
50135,-0.49,-0.48,-1.20
50153,-0.50,-0.48,-1.19
50172,-0.46,-0.50,-1.11
50190,-0.41,-0.52,-1.08
50209,-0.31,-0.54,-1.03
50227,-0.28,-0.56,-0.93
50246,-0.29,-0.57,-0.84
50264,-0.23,-0.59,-0.79
50283,-0.18,-0.61,-0.74
50301,-0.17,-0.60,-0.74
50320,-0.10,-0.62,-0.72
50338,-0.08,-0.60,-0.71
50357,-0.04,-0.61,-0.66
50375,-0.07,-0.62,-0.64
50394,-0.13,-0.60,-0.63
50412,-0.19,-0.63,-0.63
50431,-0.28,-0.63,-0.64
50449,-0.35,-0.66,-0.64
50468,-0.39,-0.67,-0.65
50486,-0.38,-0.68,-0.61
50505,-0.35,-0.69,-0.50
50523,-0.30,-0.69,-0.43
50542,-0.23,-0.69,-0.37
50560,-0.14,-0.68,-0.30
50579,-0.08,-0.67,-0.27
50597,-0.04,-0.66,-0.24
50616,-0.10,-0.66,-0.17
50634,-0.23,-0.67,-0.09
50653,-0.29,-0.68,-0.10
50671,-0.32,-0.68,-0.15
50690,-0.33,-0.67,-0.22
50708,-0.25,-0.66,-0.14
50727,-0.18,-0.66,-0.03
50745,-0.09,-0.65,-0.01
50764,0.03,-0.65,0.11
50782,0.11,-0.64,0.13
50801,0.18,-0.63,0.14
50819,0.05,-0.62,0.18
50838,-0.12,-0.62,0.27
50856,-0.27,-0.62,0.37
50875,-0.37,-0.62,0.42
50893,-0.43,-0.62,0.51
50912,-0.30,-0.61,0.63
50930,-0.09,-0.63,0.75
50949,0.06,-0.63,0.76
50967,0.17,-0.64,0.74
50986,0.28,-0.63,0.71
51004,0.34,-0.63,0.71
51023,0.34,-0.62,0.71
51041,0.13,-0.62,0.77
51060,-0.14,-0.65,0.86
51078,-0.30,-0.66,0.86
51097,-0.33,-0.69,0.74
51115,-0.23,-0.62,0.73
51134,-0.11,-0.63,0.65
51152,0.05,-0.60,0.68
51171,0.23,-0.58,0.77
51189,0.33,-0.56,0.73
51208,0.41,-0.55,0.73
51226,0.43,-0.55,0.72
51245,0.31,-0.53,0.64
51263,0.06,-0.52,0.61
51282,-0.13,-0.52,0.66
51300,-0.20,-0.49,0.72
51319,-0.28,-0.48,0.85
51337,-0.19,-0.46,0.87
51356,-0.04,-0.40,0.87
51374,0.09,-0.37,0.89
51393,0.17,-0.34,0.90
51411,0.21,-0.32,0.95
51430,0.18,-0.27,1.05
51448,-0.22,-0.67,1.19
51467,-1.53,0.25,4.00
51485,3.52,0.93,4.00
51504,1.64,-0.22,0.51
51522,-1.34,-0.17,-2.88
51541,-1.34,-0.32,-2.35
51559,-0.05,-0.41,0.85
51578,0.18,-0.42,1.20
51596,0.16,-0.40,0.51
51615,0.09,-0.38,0.39
51633,0.28,-0.38,0.66
51652,0.34,-0.39,0.71
51670,0.31,-0.37,0.66
51689,0.13,-0.46,0.76
51707,-0.16,-0.55,1.24
51726,-0.13,-0.49,2.07
51744,0.39,-0.53,2.30
51763,0.10,-0.46,1.21
51781,-0.19,-0.44,0.33
51800,-0.06,-0.42,0.23
51818,0.06,-0.42,0.54
51837,0.12,-0.41,0.73
51855,0.18,-0.41,0.90
51874,0.23,-0.41,1.11
51892,0.22,-0.42,1.17
51911,0.14,-0.41,1.04
51929,0.05,-0.41,0.89
51948,0.01,-0.42,0.84
51966,-0.00,-0.43,0.87
51985,0.01,-0.44,0.91
52003,0.07,-0.44,0.93
52022,0.12,-0.44,0.93
52040,0.17,-0.43,0.91
52059,0.17,-0.43,0.93
52077,0.14,-0.44,0.93
52096,0.09,-0.43,0.90
52114,0.07,-0.44,0.88
52133,0.08,-0.44,0.91
52151,0.09,-0.44,0.93
52170,0.06,-0.44,0.94
52188,0.05,-0.43,0.91
52207,0.06,-0.43,0.90
52225,0.08,-0.43,0.90
52244,0.08,-0.43,0.93
52262,0.07,-0.44,0.92
52281,0.08,-0.43,0.92
52299,0.08,-0.44,0.92
52318,0.06,-0.43,0.91
52336,0.07,-0.43,0.91
52355,0.06,-0.43,0.90
52373,0.09,-0.44,0.90
52392,0.10,-0.43,0.93
52410,0.10,-0.43,0.93
52429,0.09,-0.43,0.92
52447,0.08,-0.44,0.91
52466,0.07,-0.44,0.91
52484,0.08,-0.44,0.92
52503,0.08,-0.44,0.92
52521,0.08,-0.44,0.91
52540,0.09,-0.43,0.90
52558,0.07,-0.44,0.91
52577,0.06,-0.43,0.90
52595,0.07,-0.44,0.90
52614,0.09,-0.44,0.93
52632,0.08,-0.44,0.93
52651,0.07,-0.44,0.92
52669,0.07,-0.44,0.91
52688,0.06,-0.44,0.91
52706,0.05,-0.44,0.92
52725,0.06,-0.45,0.92
52743,0.06,-0.44,0.90
52762,0.05,-0.44,0.90
52780,0.05,-0.44,0.91
52799,0.04,-0.44,0.92
52817,0.07,-0.44,0.92
52836,0.06,-0.44,0.91
52854,0.04,-0.44,0.91
52873,0.08,-0.44,0.92
52891,0.05,-0.44,0.90
52910,0.08,-0.44,0.90
52928,0.07,-0.44,0.92
52947,0.05,-0.44,0.91
52965,0.07,-0.44,0.92
52984,0.06,-0.44,0.91
53002,0.06,-0.44,0.91
53021,0.06,-0.44,0.92
53039,0.04,-0.44,0.91
53058,0.04,-0.45,0.91
53076,0.05,-0.45,0.91
53095,0.04,-0.45,0.92
53113,0.05,-0.45,0.92
53132,0.05,-0.45,0.91
53150,0.05,-0.44,0.89
53169,0.07,-0.45,0.91
53187,0.05,-0.44,0.91
53206,0.06,-0.44,0.91
53224,0.06,-0.44,0.92
53243,0.06,-0.44,0.91
53261,0.06,-0.44,0.92
53280,0.07,-0.44,0.92
53298,0.07,-0.44,0.92
53317,0.06,-0.44,0.91
53335,0.05,-0.44,0.90
53354,0.05,-0.44,0.89
53372,0.06,-0.45,0.91
53391,0.05,-0.45,0.92
53409,0.05,-0.45,0.92
53428,0.06,-0.45,0.91
53446,0.06,-0.44,0.91
53465,0.06,-0.44,0.92
53483,0.05,-0.44,0.91
53502,0.04,-0.44,0.91
53520,0.03,-0.44,0.91
53539,0.03,-0.44,0.92
53557,0.05,-0.44,0.91
53576,0.05,-0.44,0.91
53594,0.06,-0.44,0.91
53613,0.07,-0.45,0.91
53631,0.05,-0.45,0.91
53650,0.05,-0.45,0.91
53668,0.05,-0.45,0.91
53687,0.03,-0.45,0.92
53705,0.03,-0.45,0.92
53724,0.03,-0.45,0.91
53742,0.05,-0.45,0.91
53761,0.05,-0.44,0.90
53779,0.04,-0.44,0.92
53798,0.04,-0.44,0.92
53816,0.05,-0.44,0.90
53835,0.06,-0.44,0.91
53853,0.06,-0.45,0.92
53872,0.05,-0.44,0.92
53890,0.04,-0.45,0.91
53909,0.05,-0.44,0.90
53927,0.04,-0.44,0.91
53946,0.04,-0.45,0.92
53964,0.05,-0.44,0.92
53983,0.04,-0.44,0.90
54001,0.05,-0.44,0.91
54020,0.05,-0.45,0.91
54038,0.05,-0.44,0.91
54057,0.05,-0.45,0.92
54075,0.04,-0.45,0.91
54094,0.05,-0.45,0.92
54112,0.04,-0.45,0.91
54131,0.05,-0.45,0.91
54149,0.05,-0.44,0.90
54168,0.05,-0.45,0.91
54186,0.05,-0.45,0.92
54205,0.06,-0.45,0.91
54223,0.06,-0.45,0.91
54242,0.04,-0.45,0.91
54260,0.03,-0.44,0.89
54279,0.05,-0.44,0.90
54297,0.06,-0.45,0.92
54316,0.06,-0.45,0.93
54334,0.07,-0.44,0.93
54353,0.06,-0.44,0.91
54371,0.06,-0.44,0.92
54390,0.05,-0.44,0.90
54408,0.05,-0.44,0.91
54427,0.06,-0.44,0.91
54445,0.06,-0.44,0.90
54464,0.06,-0.44,0.92
54482,0.05,-0.45,0.91
54501,0.05,-0.44,0.91
54519,0.05,-0.45,0.90
54538,0.05,-0.45,0.91
54556,0.06,-0.45,0.92
54575,0.06,-0.45,0.93
54593,0.05,-0.45,0.91
54612,0.05,-0.45,0.91
54630,0.04,-0.45,0.91
54649,0.03,-0.45,0.90
54667,0.05,-0.45,0.91
54686,0.05,-0.45,0.92
54704,0.06,-0.44,0.92
54723,0.06,-0.44,0.92
54741,0.05,-0.44,0.91
54760,0.04,-0.44,0.91
54778,0.05,-0.44,0.91
54797,0.05,-0.44,0.91
54815,0.06,-0.44,0.91
54834,0.06,-0.44,0.92
54852,0.06,-0.45,0.92
54871,0.06,-0.45,0.92
54889,0.05,-0.45,0.92
54908,0.05,-0.45,0.91
54926,0.05,-0.45,0.91
54945,0.05,-0.45,0.91
54963,0.06,-0.45,0.91
54982,0.04,-0.45,0.92
55000,0.04,-0.45,0.92
55019,0.05,-0.45,0.91
55037,0.05,-0.45,0.91
55056,0.03,-0.45,0.91
55074,0.09,-0.45,0.92
55093,0.02,-0.45,0.90
55111,0.04,-0.45,0.92
55130,0.05,-0.45,0.91
55148,0.06,-0.45,0.92
55167,0.06,-0.45,0.92
55185,0.05,-0.45,0.90
55204,0.05,-0.45,0.91
55222,0.06,-0.45,0.92
55241,0.06,-0.45,0.92
55259,0.07,-0.44,0.90
55278,0.07,-0.44,0.90
55296,0.07,-0.44,0.91
55315,0.06,-0.44,0.92
55333,0.06,-0.44,0.92
55352,0.06,-0.44,0.92
55370,0.06,-0.44,0.91
55389,0.06,-0.44,0.91
55407,0.06,-0.45,0.91
55426,0.06,-0.45,0.92
55444,0.05,-0.45,0.92
55463,0.05,-0.45,0.90
55481,0.05,-0.45,0.91
55500,0.05,-0.45,0.92
55518,0.05,-0.45,0.92
55537,0.04,-0.45,0.92
55555,0.03,-0.45,0.91
55574,0.03,-0.45,0.90
55592,0.04,-0.45,0.90
55611,0.04,-0.45,0.93
55629,0.04,-0.45,0.93
55648,0.05,-0.45,0.92
55666,0.05,-0.45,0.90
55685,0.06,-0.45,0.91
55703,0.06,-0.45,0.91
55722,0.05,-0.45,0.92
55740,0.05,-0.45,0.91
55759,0.04,-0.45,0.92
55777,0.04,-0.45,0.92
55796,0.04,-0.45,0.91
55814,0.04,-0.45,0.91
55833,0.04,-0.45,0.91
55851,0.05,-0.44,0.90
55870,0.06,-0.45,0.92
55888,0.06,-0.45,0.92
55907,0.06,-0.45,0.92
55925,0.04,-0.45,0.91
55944,0.05,-0.44,0.91
55962,0.05,-0.45,0.92
55981,0.06,-0.45,0.91
55999,0.06,-0.45,0.92
56018,0.06,-0.44,0.91
56036,0.06,-0.45,0.91
56055,0.05,-0.45,0.92
56073,0.04,-0.45,0.91
56092,0.05,-0.45,0.91
56110,0.05,-0.45,0.92
56129,0.05,-0.45,0.91
56147,0.04,-0.45,0.92
56166,0.05,-0.44,0.91
56184,0.04,-0.44,0.91
56203,0.04,-0.44,0.90
56221,0.06,-0.45,0.90
56240,0.05,-0.45,0.92
56258,0.05,-0.45,0.92
56277,0.05,-0.45,0.92
56295,0.05,-0.45,0.90
56314,0.06,-0.45,0.90
56332,0.06,-0.45,0.91
56351,0.06,-0.45,0.91
56369,0.07,-0.45,0.92
56388,0.06,-0.45,0.92
56406,0.05,-0.45,0.91
56425,0.05,-0.45,0.91
56443,0.05,-0.45,0.91
56462,0.04,-0.45,0.92
56480,0.03,-0.45,0.91
56499,0.03,-0.45,0.91
56517,0.03,-0.45,0.91
56536,0.03,-0.45,0.91
56554,0.03,-0.45,0.91
56573,0.04,-0.45,0.91
56591,0.04,-0.45,0.90
56610,0.04,-0.46,0.91
56628,0.05,-0.45,0.92
56647,0.05,-0.45,0.92
56665,0.04,-0.45,0.91
56684,0.04,-0.45,0.91
56702,0.04,-0.45,0.91
56721,0.04,-0.45,0.91
56739,0.06,-0.45,0.91
56758,0.05,-0.45,0.92
56776,0.04,-0.45,0.93
56795,0.04,-0.45,0.90
56813,0.03,-0.44,0.90
56832,0.04,-0.45,0.91
56850,0.03,-0.45,0.91
56869,0.04,-0.45,0.91
56887,0.05,-0.45,0.92
56906,0.05,-0.45,0.92
56924,0.05,-0.45,0.91
56943,0.04,-0.45,0.91
56961,0.04,-0.45,0.90
56980,0.05,-0.45,0.91
56998,0.05,-0.45,0.91
57017,0.05,-0.45,0.91
57035,0.06,-0.45,0.91
57054,0.06,-0.45,0.92
57072,0.06,-0.45,0.92
57091,0.05,-0.45,0.91
57109,0.04,-0.45,0.90
57128,0.04,-0.45,0.90
57146,0.04,-0.45,0.92
57165,0.04,-0.45,0.92
57183,0.04,-0.45,0.91
57202,0.04,-0.45,0.91
57220,0.04,-0.45,0.91
57239,0.04,-0.45,0.92
57257,0.05,-0.45,0.90
57276,0.04,-0.45,0.90
57294,0.06,-0.45,0.91
57313,0.05,-0.45,0.92
57331,0.05,-0.45,0.91
57350,0.05,-0.45,0.91
57368,0.05,-0.45,0.91
57387,0.05,-0.45,0.91
57405,0.05,-0.45,0.91
57424,0.06,-0.45,0.91
57442,0.06,-0.45,0.91
57461,0.05,-0.46,0.91
57479,0.04,-0.45,0.90
57498,0.04,-0.45,0.91
57516,0.04,-0.45,0.91
57535,0.04,-0.45,0.92
57553,0.04,-0.46,0.91
57572,0.04,-0.45,0.91
57590,0.04,-0.45,0.90
57609,0.04,-0.45,0.92
57627,0.04,-0.45,0.91
57646,0.05,-0.45,0.91
57664,0.05,-0.45,0.91
57683,0.05,-0.45,0.91
57701,0.04,-0.45,0.91
57720,0.06,-0.45,0.91
57738,0.05,-0.45,0.92
57757,0.05,-0.45,0.91
57775,0.05,-0.45,0.90
57794,0.05,-0.45,0.90
57812,0.04,-0.45,0.90
57831,0.05,-0.46,0.91
57849,0.04,-0.45,0.92
57868,0.04,-0.46,0.91
57886,0.04,-0.46,0.91
57905,0.04,-0.46,0.91
57923,0.04,-0.46,0.91
57942,0.04,-0.45,0.91
57960,0.04,-0.45,0.91
57979,0.05,-0.45,0.91
57997,0.05,-0.45,0.92
58016,0.05,-0.45,0.91
58034,0.04,-0.45,0.90
58053,0.05,-0.45,0.90
58071,0.03,-0.45,0.91
58090,0.04,-0.45,0.92
58108,0.05,-0.45,0.91
58127,0.06,-0.46,0.91
58145,0.05,-0.45,0.91
58164,0.04,-0.46,0.90
58182,0.04,-0.46,0.90
58201,0.04,-0.45,0.90
58219,0.04,-0.45,0.92
58238,0.04,-0.46,0.93
58256,0.05,-0.45,0.92
58275,0.05,-0.45,0.91
58293,0.05,-0.45,0.90
58312,0.04,-0.45,0.91
58330,0.05,-0.45,0.92
58349,0.05,-0.45,0.91
58367,0.04,-0.45,0.92
58386,0.03,-0.45,0.90
58404,0.03,-0.45,0.91
58423,0.04,-0.45,0.91
58441,0.04,-0.45,0.91
58460,0.03,-0.45,0.91
58478,0.04,-0.45,0.91
58497,0.05,-0.45,0.91
58515,0.05,-0.45,0.91
58534,0.05,-0.45,0.92
58552,0.05,-0.45,0.92
58571,0.05,-0.46,0.91
58589,0.05,-0.45,0.91
58608,0.06,-0.45,0.92
58626,0.06,-0.45,0.92
58645,0.05,-0.45,0.90
58663,0.04,-0.45,0.91
58682,0.03,-0.45,0.90
58700,0.02,-0.45,0.91
58719,0.04,-0.45,0.91
58737,0.04,-0.46,0.91
58756,0.04,-0.45,0.91
58774,0.05,-0.46,0.92
58793,0.05,-0.46,0.91
58811,0.05,-0.46,0.90
58830,0.06,-0.46,0.91
58848,0.05,-0.45,0.91
58867,0.05,-0.45,0.91
58885,0.05,-0.45,0.91
58904,0.05,-0.45,0.90
58922,0.05,-0.45,0.92
58941,0.05,-0.45,0.91
58959,0.05,-0.45,0.90
58978,0.05,-0.45,0.91
58996,0.04,-0.45,0.92
59015,0.03,-0.45,0.89
59033,0.04,-0.46,0.90
59052,0.04,-0.46,0.93
59070,0.04,-0.46,0.92
59089,0.04,-0.46,0.91
59107,0.04,-0.45,0.91
59126,0.04,-0.46,0.91
59144,0.04,-0.46,0.91
59163,0.05,-0.46,0.91
59181,0.04,-0.45,0.90
59200,0.04,-0.45,0.91
59218,0.04,-0.45,0.92
59237,0.04,-0.45,0.91
59255,0.05,-0.45,0.91
59274,0.05,-0.45,0.92
59292,0.05,-0.45,0.91
59311,0.05,-0.45,0.91
59329,0.04,-0.45,0.91
59348,0.04,-0.45,0.92
59366,0.04,-0.45,0.91
59385,0.05,-0.45,0.91
59403,0.04,-0.46,0.91
59422,0.04,-0.46,0.91
59440,0.04,-0.46,0.90
59459,0.05,-0.46,0.91
59477,0.04,-0.46,0.91
59496,0.04,-0.46,0.91
59514,0.05,-0.45,0.91
59533,0.05,-0.45,0.92
59551,0.04,-0.46,0.91
59570,0.05,-0.45,0.90
59588,0.04,-0.45,0.90
59607,0.05,-0.46,0.91
59625,0.04,-0.45,0.92
59644,0.04,-0.45,0.90
59662,0.05,-0.46,0.91
59681,0.05,-0.46,0.92
59699,0.04,-0.46,0.91
59718,0.05,-0.45,0.91
59736,0.03,-0.46,0.90
59755,0.04,-0.45,0.91
59773,0.04,-0.45,0.91
59792,0.04,-0.45,0.91
59810,0.05,-0.45,0.92
59829,0.05,-0.45,0.91
59847,0.05,-0.45,0.92
59866,0.05,-0.45,0.91
59884,0.04,-0.45,0.90
59903,0.05,-0.45,0.90
59921,0.04,-0.45,0.91
59940,0.05,-0.46,0.92
59958,0.05,-0.46,0.92
59977,0.05,-0.46,0.91
59995,0.04,-0.45,0.90
60014,0.05,-0.46,0.91
60032,0.05,-0.45,0.92
60051,0.05,-0.45,0.91
60069,0.05,-0.46,0.91
60088,0.04,-0.46,0.91
60106,0.05,-0.45,0.91
60125,0.05,-0.45,0.92
60143,0.05,-0.46,0.91
60162,0.05,-0.45,0.91
60180,0.05,-0.45,0.89
60199,0.05,-0.45,0.90
60217,0.05,-0.46,0.92
60236,0.04,-0.46,0.91
60254,0.05,-0.46,0.91
60273,0.04,-0.46,0.91
60291,0.05,-0.46,0.92
60310,0.05,-0.45,0.90
60328,0.05,-0.45,0.91
60347,0.05,-0.46,0.91
60365,0.05,-0.45,0.91
60384,0.05,-0.46,0.91
60402,0.04,-0.45,0.90
60421,0.04,-0.45,0.91
60439,0.04,-0.46,0.91
60458,0.04,-0.45,0.91
60476,0.05,-0.45,0.91
60495,0.04,-0.45,0.91
60513,0.04,-0.45,0.90
60532,0.05,-0.46,0.91
60550,0.05,-0.46,0.91
60569,0.05,-0.46,0.92
60587,0.05,-0.46,0.91
60606,0.05,-0.45,0.90
60624,0.05,-0.46,0.92
60643,0.06,-0.46,0.91
60661,0.05,-0.46,0.91
60680,0.04,-0.45,0.90
60698,0.04,-0.45,0.91
60717,0.04,-0.46,0.90
60735,0.04,-0.46,0.91
60754,0.05,-0.46,0.92
60772,0.05,-0.45,0.91
60791,0.05,-0.45,0.91
60809,0.05,-0.45,0.91
60828,0.05,-0.45,0.91
60846,0.06,-0.45,0.91
60865,0.06,-0.46,0.91
60883,0.05,-0.46,0.92
60902,0.04,-0.46,0.90
60920,0.04,-0.46,0.90
60939,0.04,-0.46,0.91
60957,0.03,-0.46,0.90
60976,0.06,-0.46,0.92
60994,0.05,-0.45,0.92
61013,0.04,-0.46,0.91
61031,0.05,-0.45,0.91
61050,0.05,-0.45,0.91
61068,0.05,-0.46,0.91
61087,0.05,-0.45,0.91
61105,0.05,-0.45,0.90
61124,0.06,-0.46,0.91
61142,0.04,-0.45,0.91
61161,0.04,-0.46,0.91
61179,0.05,-0.46,0.91
61198,0.04,-0.46,0.91
61216,0.05,-0.46,0.91
61235,0.04,-0.45,0.91
61253,0.04,-0.46,0.91
61272,0.05,-0.45,0.91
61290,0.05,-0.45,0.91
61309,0.05,-0.45,0.90
61327,0.05,-0.46,0.92
61346,0.05,-0.46,0.91
61364,0.05,-0.45,0.90
61383,0.05,-0.45,0.91
61401,0.05,-0.46,0.92
61420,0.04,-0.46,0.91
61438,0.04,-0.46,0.91
61457,0.05,-0.46,0.91
61475,0.04,-0.46,0.91
61494,0.05,-0.46,0.91
61512,0.05,-0.46,0.91
61531,0.04,-0.46,0.90
61549,0.05,-0.46,0.90
61568,0.05,-0.46,0.92
61586,0.05,-0.46,0.91
61605,0.05,-0.45,0.91
61623,0.05,-0.45,0.91
61642,0.05,-0.45,0.91
61660,0.05,-0.45,0.91
61679,0.05,-0.45,0.91
61697,0.05,-0.46,0.91
61716,0.04,-0.46,0.89
61734,0.04,-0.46,0.91
61753,0.04,-0.46,0.92
61771,0.04,-0.46,0.91
61790,0.05,-0.46,0.90
61808,0.05,-0.46,0.92
61827,0.05,-0.46,0.92
61845,0.05,-0.45,0.91
61864,0.05,-0.45,0.91
61882,0.05,-0.46,0.90
61901,0.05,-0.45,0.91
61919,0.04,-0.45,0.90
61938,0.04,-0.46,0.91
61956,0.04,-0.46,0.92
61975,0.05,-0.46,0.91
61993,0.05,-0.46,0.90
62012,0.05,-0.46,0.91
62030,0.04,-0.46,0.91
62049,0.04,-0.46,0.91
62067,0.05,-0.46,0.90
62086,0.04,-0.46,0.90
62104,0.05,-0.46,0.91
62123,0.05,-0.46,0.92
62141,0.05,-0.46,0.91
62160,0.04,-0.46,0.90
62178,0.04,-0.46,0.90
62197,0.04,-0.46,0.91
62215,0.04,-0.46,0.91
62234,0.04,-0.45,0.90
62252,0.05,-0.45,0.91
62271,0.05,-0.46,0.91
62289,0.05,-0.45,0.91
62308,0.05,-0.46,0.91
62326,0.05,-0.46,0.91
62345,0.05,-0.46,0.91
62363,0.05,-0.46,0.91
62382,0.04,-0.46,0.91
62400,0.04,-0.46,0.91
62419,0.04,-0.46,0.91
62437,0.05,-0.46,0.91
62456,0.05,-0.46,0.91
62474,0.04,-0.46,0.91
62493,0.04,-0.45,0.90
62511,0.04,-0.45,0.89
62530,0.04,-0.45,0.90
62548,0.05,-0.46,0.92
62567,0.04,-0.46,0.92
62585,0.05,-0.46,0.91
62604,0.05,-0.46,0.91
62622,0.05,-0.46,0.92
62641,0.05,-0.46,0.91
62659,0.04,-0.46,0.91
62678,0.04,-0.46,0.90
62696,0.04,-0.46,0.90
62715,0.04,-0.46,0.91
62733,0.04,-0.46,0.91
62752,0.05,-0.46,0.92
62770,0.04,-0.46,0.91
62789,0.04,-0.46,0.91
62807,0.04,-0.46,0.91
62826,0.04,-0.46,0.91
62844,0.05,-0.46,0.91
62863,0.05,-0.46,0.91
62881,0.05,-0.45,0.90
62900,0.05,-0.46,0.91
62918,0.04,-0.46,0.91
62937,0.05,-0.46,0.91
62955,0.05,-0.46,0.91
62974,0.05,-0.46,0.91
62992,0.04,-0.46,0.91
63011,0.04,-0.46,0.91
63029,0.05,-0.46,0.91
63048,0.04,-0.46,0.91
63066,0.04,-0.46,0.91
63085,0.04,-0.46,0.90
63103,0.04,-0.46,0.90
63122,0.05,-0.46,0.92
63140,0.05,-0.46,0.92
63159,0.05,-0.46,0.92
63177,0.04,-0.46,0.91
63196,0.03,-0.46,0.90
63214,0.04,-0.46,0.91
63233,0.04,-0.46,0.90
63251,0.05,-0.46,0.91
63270,0.04,-0.46,0.90
63288,0.05,-0.46,0.91
63307,0.04,-0.46,0.91
63325,0.05,-0.46,0.92
63344,0.05,-0.46,0.91
63362,0.04,-0.46,0.90
63381,0.05,-0.46,0.90
63399,0.04,-0.46,0.91
63418,0.05,-0.46,0.91
63436,0.04,-0.46,0.91
63455,0.03,-0.46,0.90
63473,0.04,-0.46,0.91
63492,0.04,-0.46,0.91
63510,0.05,-0.46,0.91
63529,0.05,-0.46,0.91
63547,0.04,-0.46,0.91
63566,0.05,-0.46,0.90
63584,0.05,-0.46,0.90
63603,0.05,-0.46,0.91
63621,0.04,-0.46,0.91
63640,0.03,-0.45,0.90
63658,0.04,-0.46,0.90
63677,0.05,-0.47,0.91
63695,0.04,-0.47,0.92
63714,0.05,-0.47,0.91
63732,0.05,-0.46,0.91
63751,0.04,-0.46,0.90
63769,0.04,-0.46,0.90
63788,0.04,-0.45,0.91
63806,0.04,-0.45,0.91
63825,0.05,-0.45,0.90
63843,0.06,-0.46,0.91
63862,0.05,-0.46,0.91
63880,0.05,-0.46,0.91
63899,0.05,-0.46,0.91
63917,0.04,-0.46,0.91
63936,0.04,-0.46,0.91
63954,0.03,-0.46,0.91
63973,0.03,-0.46,0.90
63991,0.04,-0.46,0.90
64010,0.04,-0.46,0.91
64028,0.03,-0.46,0.91
64047,0.04,-0.45,0.91
64065,0.04,-0.45,0.90
64084,0.04,-0.45,0.91
64102,0.05,-0.45,0.91
64121,0.05,-0.45,0.92
64139,0.04,-0.46,0.91
64158,0.04,-0.46,0.91
64176,0.04,-0.46,0.90
64195,0.03,-0.46,0.90
64213,0.03,-0.46,0.90
64232,0.03,-0.46,0.91
64250,0.03,-0.46,0.92
64269,0.04,-0.46,0.92
64287,0.04,-0.46,0.90
64306,0.04,-0.46,0.91
64324,0.04,-0.46,0.91
64343,0.05,-0.46,0.91
64361,0.05,-0.46,0.91
64380,0.05,-0.46,0.91
64398,0.05,-0.46,0.91
64417,0.05,-0.46,0.91
64435,0.05,-0.46,0.90
64454,0.05,-0.46,0.91
64472,0.05,-0.46,0.91
64491,0.05,-0.46,0.91
64509,0.04,-0.46,0.91
64528,0.04,-0.46,0.91
64546,0.03,-0.46,0.91
64565,0.04,-0.46,0.91
64583,0.04,-0.46,0.90
64602,0.04,-0.46,0.90
64620,0.05,-0.46,0.91
64639,0.04,-0.46,0.91
64657,0.04,-0.47,0.90
64676,0.05,-0.46,0.91
64694,0.05,-0.46,0.91
64713,0.05,-0.46,0.91
64731,0.04,-0.46,0.91
64750,0.04,-0.46,0.90
64768,0.04,-0.45,0.89
64787,0.04,-0.46,0.90
64805,0.04,-0.46,0.91
64824,0.05,-0.46,0.91
64842,0.05,-0.46,0.91
64861,0.04,-0.46,0.91
64879,0.04,-0.46,0.91
64898,0.04,-0.46,0.91
64916,0.04,-0.46,0.91
64935,0.04,-0.46,0.90
64953,0.04,-0.46,0.90
64972,0.04,-0.46,0.90
64990,0.03,-0.46,0.91
65009,0.03,-0.46,0.91
65027,0.03,-0.46,0.91
65046,0.04,-0.46,0.91
65064,0.04,-0.46,0.90
65083,0.05,-0.46,0.91
65101,0.04,-0.46,0.91
65120,0.04,-0.46,0.91
65138,0.04,-0.46,0.91
65157,0.04,-0.46,0.91
65175,0.03,-0.46,0.90
65194,0.04,-0.46,0.91
65212,0.04,-0.46,0.90
65231,0.05,-0.46,0.90
65249,0.04,-0.46,0.91
65268,0.04,-0.46,0.91
65286,0.04,-0.46,0.90
65305,0.04,-0.46,0.90
65323,0.04,-0.46,0.91
65342,0.05,-0.46,0.91
65360,0.05,-0.46,0.91
65379,0.06,-0.46,0.91
65397,0.05,-0.46,0.91
65416,0.05,-0.46,0.91
65434,0.05,-0.46,0.91
65453,0.04,-0.46,0.91
65471,0.04,-0.46,0.91
65490,0.03,-0.46,0.90
65508,0.02,-0.46,0.90
65527,0.02,-0.46,0.91
65545,0.03,-0.46,0.90
65564,0.03,-0.46,0.90
65582,0.03,-0.46,0.91
65601,0.03,-0.46,0.91
65619,0.04,-0.46,0.91
65638,0.05,-0.46,0.90
65656,0.04,-0.46,0.90
65675,0.04,-0.46,0.92
65693,0.05,-0.46,0.90
65712,0.05,-0.46,0.91
65730,0.05,-0.46,0.90
65749,0.05,-0.46,0.91
65767,0.05,-0.46,0.91
65786,0.04,-0.46,0.91
65804,0.04,-0.46,0.90
65823,0.04,-0.46,0.90
65841,0.04,-0.46,0.91
65860,0.03,-0.46,0.91
65878,0.03,-0.46,0.91
65897,0.03,-0.46,0.91
65915,0.03,-0.46,0.91
65934,0.03,-0.46,0.90
65952,0.03,-0.46,0.91
65971,0.03,-0.46,0.90
65989,0.04,-0.46,0.91
66008,0.04,-0.46,0.90
66026,0.05,-0.46,0.92
66045,0.05,-0.46,0.91
66063,0.05,-0.46,0.91
66082,0.05,-0.46,0.90
66100,0.04,-0.46,0.91
66119,0.04,-0.46,0.90
66137,0.04,-0.46,0.91
66156,0.04,-0.46,0.92
66174,0.04,-0.46,0.91
66193,0.04,-0.46,0.91
66211,0.03,-0.46,0.90
66230,0.04,-0.46,0.91
66248,0.03,-0.46,0.91
66267,0.04,-0.46,0.90
66285,0.04,-0.46,0.91
66304,0.04,-0.46,0.91
66322,0.04,-0.46,0.91
66341,0.05,-0.46,0.90
66359,0.05,-0.46,0.90
66378,0.03,-0.46,0.90
66396,0.04,-0.46,0.90
66415,0.03,-0.46,0.90
66433,0.04,-0.46,0.91
66452,0.04,-0.46,0.92
66470,0.05,-0.46,0.91
66489,0.04,-0.46,0.90
66507,0.05,-0.46,0.91
66526,0.05,-0.46,0.92
66544,0.04,-0.46,0.91
66563,0.04,-0.46,0.91
66581,0.03,-0.46,0.91
66600,0.03,-0.46,0.90
66618,0.02,-0.46,0.90
66637,0.03,-0.46,0.90
66655,0.03,-0.46,0.90
66674,0.04,-0.46,0.91
66692,0.04,-0.46,0.91
66711,0.04,-0.46,0.91
66729,0.05,-0.46,0.91
66748,0.04,-0.46,0.91
66766,0.04,-0.46,0.91
66785,0.05,-0.46,0.91
66803,0.04,-0.46,0.91
66822,0.05,-0.46,0.92
66840,0.04,-0.46,0.91
66859,0.03,-0.46,0.89
66877,0.04,-0.46,0.90
66896,0.04,-0.46,0.91
66914,0.03,-0.46,0.91
66933,0.03,-0.46,0.91
66951,0.03,-0.46,0.90
66970,0.03,-0.46,0.91
66988,0.03,-0.46,0.90
67007,0.03,-0.46,0.91
67025,0.03,-0.46,0.91
67044,0.03,-0.46,0.90
67062,0.03,-0.46,0.90
67081,0.03,-0.46,0.90
67099,0.03,-0.46,0.91
67118,0.04,-0.47,0.91
67136,0.05,-0.47,0.91
67155,0.05,-0.47,0.90
67173,0.05,-0.47,0.92
67192,0.05,-0.47,0.91
67210,0.05,-0.46,0.91
67229,0.05,-0.46,0.90
67247,0.04,-0.46,0.91
67266,0.04,-0.46,0.90
67284,0.04,-0.46,0.91
67303,0.03,-0.46,0.91
67321,0.04,-0.46,0.92
67340,0.03,-0.46,0.91
67358,0.03,-0.46,0.90
67377,0.03,-0.46,0.90
67395,0.03,-0.46,0.92
67414,0.03,-0.46,0.91
67432,0.04,-0.46,0.90
67451,0.04,-0.46,0.91
67469,0.05,-0.46,0.91
67488,0.04,-0.46,0.90
67506,0.04,-0.46,0.90
67525,0.04,-0.46,0.90
67543,0.03,-0.46,0.91
67562,0.04,-0.46,0.91
67580,0.04,-0.46,0.91
67599,0.03,-0.46,0.91
67617,0.04,-0.46,0.91
67636,0.04,-0.46,0.90
67654,0.03,-0.46,0.91
67673,0.03,-0.46,0.90
67691,0.03,-0.46,0.91
67710,0.02,-0.46,0.90
67728,0.04,-0.47,0.91
67747,0.03,-0.47,0.91
67765,0.04,-0.47,0.91
67784,0.04,-0.47,0.90
67802,0.05,-0.47,0.91
67821,0.04,-0.46,0.91
67839,0.05,-0.46,0.91
67858,0.04,-0.46,0.91
67876,0.05,-0.46,0.91
67895,0.04,-0.46,0.91
67913,0.03,-0.46,0.90
67932,0.03,-0.46,0.89
67950,0.02,-0.46,0.90
67969,0.03,-0.46,0.90
67987,0.03,-0.46,0.91
68006,0.03,-0.46,0.90
68024,0.03,-0.47,0.91
68043,0.03,-0.47,0.92
68061,0.04,-0.46,0.91
68080,0.04,-0.46,0.90
68098,0.04,-0.46,0.90
68117,0.04,-0.46,0.91
68135,0.04,-0.46,0.91
68154,0.04,-0.46,0.91
68172,0.03,-0.46,0.91
68191,0.03,-0.46,0.91
68209,0.03,-0.46,0.90
68228,0.04,-0.46,0.90
