timestamp,AX,AY,AZ
0,,-0.47,0.90
18,0.03,-0.47,0.91
37,0.04,-0.47,0.90
55,0.04,-0.47,0.90
74,0.05,-0.47,0.91
92,0.04,-0.46,0.91
111,0.05,-0.46,0.89
129,0.06,-0.46,0.91
148,0.04,-0.46,0.91
166,0.05,-0.46,0.91
185,0.05,-0.47,0.91
203,0.04,-0.47,0.91
222,0.04,-0.47,0.90
240,0.04,-0.47,0.90
259,0.03,-0.47,0.90
277,0.03,-0.47,0.90
296,0.03,-0.47,0.90
314,0.03,-0.47,0.90
333,0.03,-0.47,0.91
351,0.04,-0.47,0.91
370,0.04,-0.46,0.91
388,0.04,-0.46,0.90
407,0.04,-0.46,0.89
425,0.04,-0.47,0.91
444,0.04,-0.47,0.92
462,0.04,-0.46,0.90
481,0.02,-0.46,0.90
499,0.02,-0.47,0.90
518,0.03,-0.47,0.90
536,0.03,-0.46,0.90
555,0.04,-0.46,0.91
573,0.04,-0.46,0.90
592,0.04,-0.47,0.90
610,0.04,-0.47,0.91
629,0.04,-0.47,0.90
647,0.04,-0.47,0.91
666,0.04,-0.47,0.90
684,0.04,-0.47,0.91
703,0.03,-0.47,0.91
721,0.03,-0.47,0.90
740,0.04,-0.47,0.89
758,0.03,-0.47,0.91
777,0.04,-0.46,0.91
795,0.04,-0.47,0.90
814,0.04,-0.47,0.91
832,0.05,-0.47,0.91
851,0.05,-0.47,0.90
869,0.05,-0.47,0.91
888,0.04,-0.46,0.91
906,0.03,-0.46,0.90
925,0.03,-0.46,0.89
943,0.04,-0.46,0.90
962,0.04,-0.46,0.91
980,0.04,-0.47,0.91
999,0.05,-0.47,0.90
1017,0.05,-0.47,0.92
1036,0.04,-0.48,0.91
1054,0.05,-0.48,0.90
1073,0.05,-0.48,0.91
1091,0.04,-0.47,0.91
1110,0.05,-0.47,0.91
1128,0.05,-0.47,0.91
1147,0.05,-0.46,0.90
1165,0.05,-0.45,0.90
1184,0.05,-0.45,0.90
1202,0.05,-0.45,0.90
1221,0.04,-0.45,0.90
1239,0.03,-0.45,0.89
1258,0.04,-0.45,0.91
1276,0.04,-0.46,0.91
1295,0.04,-0.47,0.90
1313,0.03,-0.47,0.90
1332,0.03,-0.47,0.90
1350,0.04,-0.47,0.90
1369,0.03,-0.47,0.90
1387,0.04,-0.47,0.91
1406,0.03,-0.47,0.90
1424,0.03,-0.47,0.91
1443,0.03,-0.47,0.91
1461,0.03,-0.47,0.91
1480,0.03,-0.46,0.90
1498,0.04,-0.46,0.90
1517,0.04,-0.46,0.91
1535,0.08,-0.46,0.89
1554,0.10,-0.45,0.88
1572,0.05,-0.46,0.96
1591,-0.02,-0.50,0.97
1609,-0.07,-0.46,0.99
1628,0.03,-0.50,0.95
1646,0.00,-0.48,0.92
1665,-0.03,-0.49,0.91
1683,0.03,-0.50,0.97
1702,-0.02,-0.50,1.00
1720,0.02,-0.53,1.08
1739,0.03,-0.54,1.15
1757,-0.01,-0.56,1.31
1776,-0.05,-0.58,1.48
1794,-0.11,-0.63,1.72
1813,0.06,-0.61,1.80
1831,0.15,-0.59,1.73
1850,0.21,-0.58,1.80
1868,0.23,-0.57,1.77
1887,0.19,-0.54,1.66
1905,0.17,-0.53,1.60
1924,0.19,-0.50,1.56
1942,0.19,-0.47,1.55
1961,0.20,-0.46,1.55
1979,0.24,-0.43,1.63
1998,0.29,-0.43,1.72
2016,0.32,-0.40,1.68
2035,0.33,-0.38,1.78
2053,0.31,-0.37,1.82
2072,0.38,-0.35,1.65
2090,0.37,-0.29,1.45
2109,0.32,-0.27,1.06
2127,0.23,-0.29,1.21
2146,0.16,-0.26,1.06
2164,0.12,-0.19,1.05
2183,0.20,-0.27,0.89
2201,0.22,-0.23,0.67
2220,0.27,-0.22,0.54
2238,0.23,-0.22,0.50
2257,0.19,-0.20,0.40
2275,0.15,-0.21,0.37
2294,0.08,-0.20,0.27
2312,0.04,-0.21,0.21
2331,0.01,-0.22,0.08
2349,0.04,-0.23,0.10
2368,0.06,-0.24,-0.07
2386,-0.13,-0.21,0.14
2405,-0.05,-0.25,-0.04
2423,0.00,-0.27,-0.03
2442,0.05,-0.28,0.03
2460,0.08,-0.27,-0.03
2479,0.04,-0.25,-0.20
2497,-0.03,-0.25,-0.28
2516,-0.10,-0.26,-0.30
2534,-0.19,-0.26,-0.37
2553,-0.21,-0.26,-0.46
2571,-0.24,-0.25,-0.63
2590,-0.32,-0.22,-0.83
2608,-0.24,-0.27,-0.96
2627,-0.25,-0.25,-1.05
2645,-0.25,-0.25,-1.13
2664,-0.28,-0.24,-1.18
2682,-0.34,-0.20,-1.46
2701,-0.32,-0.19,-1.61
2719,-0.45,-0.21,-1.85
2738,-0.59,-0.22,-1.92
2756,-0.70,-0.24,-1.90
2775,-0.77,-0.28,-1.91
2793,-0.78,-0.32,-1.83
2812,-0.81,-0.35,-1.65
2830,-0.83,-0.40,-1.47
2849,-0.82,-0.45,-1.31
2867,-0.77,-0.48,-1.14
2886,-0.70,-0.51,-1.06
2904,-0.61,-0.53,-1.00
2923,-0.56,-0.53,-0.95
2941,-0.54,-0.54,-0.90
2960,-0.49,-0.54,-0.81
2978,-0.43,-0.53,-0.80
2997,-0.34,-0.52,-0.82
3015,-0.28,-0.52,-0.87
3034,-0.24,-0.52,-0.91
3052,-0.20,-0.51,-0.96
3071,-0.19,-0.50,-1.03
3089,-0.25,-0.50,-1.03
3108,-0.30,-0.51,-0.93
3126,-0.39,-0.52,-0.86
3145,-0.35,-0.51,-0.84
3163,-0.32,-0.50,-0.81
3182,-0.28,-0.50,-0.77
3200,-0.20,-0.49,-0.73
3219,-0.11,-0.46,-0.73
3237,-0.03,-0.44,-0.71
3256,0.00,-0.41,-0.65
3274,0.01,-0.38,-0.61
3293,-0.02,-0.35,-0.52
3311,-0.05,-0.31,-0.41
3330,-0.32,-0.32,-0.19
3348,-0.47,-0.36,-0.02
3367,-0.41,-0.34,0.00
3385,-0.31,-0.31,-0.09
3404,-0.23,-0.26,-0.15
3422,-0.16,-0.22,-0.12
3441,-0.04,-0.18,-0.17
3459,0.09,-0.14,0.01
3478,0.20,-0.10,0.19
3496,0.29,-0.08,0.52
3515,0.22,-0.12,0.94
3533,0.05,-0.23,1.37
3552,-0.07,-0.32,1.52
3570,-0.17,-0.34,1.29
3589,-0.09,-0.37,1.10
3607,0.06,-0.33,0.91
3626,0.15,-0.33,0.79
3644,0.21,-0.30,0.81
3663,0.34,-0.30,0.93
3681,0.50,-0.31,1.07
3700,0.60,-0.31,1.22
3718,0.57,-0.32,1.24
3737,0.38,-0.34,1.41
3755,0.05,-0.38,1.37
3774,-0.15,-0.33,1.36
3792,-0.31,-0.36,1.29
3811,-0.16,-0.28,1.21
3829,-0.07,-0.31,1.34
3848,0.16,-0.32,1.52
3866,0.37,-0.32,1.62
3885,0.51,-0.36,1.69
3903,0.53,-0.39,1.67
3922,0.43,-0.41,1.64
3940,0.30,-0.39,1.55
3959,-1.53,-0.81,3.90
3977,2.12,-0.52,4.00
3996,1.03,-0.49,1.36
4014,-0.24,-0.33,-1.02
4033,0.29,-0.43,-0.13
4051,0.49,-0.44,0.65
4070,-0.12,-0.42,0.45
4088,-0.12,-0.39,0.90
4107,0.21,-0.38,0.97
4125,0.28,-0.36,1.00
4144,0.31,-0.34,0.85
4162,0.22,-0.33,0.62
4181,0.06,-0.35,0.55
4199,-0.05,-0.35,0.54
4218,-0.06,-0.39,0.60
4236,-0.01,-0.38,0.66
4255,0.11,-0.40,0.68
4273,0.17,-0.41,0.74
4292,-0.01,-0.50,1.15
4310,0.06,-0.52,1.78
4329,0.13,-0.51,1.64
4347,0.12,-0.50,1.40
4366,0.13,-0.48,0.92
4384,0.13,-0.46,0.73
4403,0.09,-0.43,0.73
4421,0.12,-0.41,0.73
4440,0.11,-0.39,0.74
4458,0.08,-0.38,0.78
4477,0.05,-0.38,0.82
4495,0.01,-0.39,0.90
4514,-0.01,-0.40,0.95
4532,-0.01,-0.41,0.96
4551,0.02,-0.44,0.98
4569,0.05,-0.44,0.95
4588,0.07,-0.44,0.94
4606,0.10,-0.44,0.90
4625,0.13,-0.44,0.90
4643,0.15,-0.44,0.93
4662,0.13,-0.44,0.95
4680,0.10,-0.43,0.93
4699,0.08,-0.43,0.93
4717,0.05,-0.43,0.93
4736,0.04,-0.43,0.91
4754,0.05,-0.43,0.91
4773,0.05,-0.42,0.91
4791,0.05,-0.43,0.90
4810,0.07,-0.43,0.91
4828,0.07,-0.43,0.91
4847,0.07,-0.44,0.91
4865,0.06,-0.44,0.91
4884,0.07,-0.44,0.92
4902,0.09,-0.44,0.92
4921,0.08,-0.43,0.94
4939,0.06,-0.42,0.90
4958,0.08,-0.43,0.91
4976,0.10,-0.43,0.92
4995,0.09,-0.43,0.91
5013,0.08,-0.43,0.92
5032,0.05,-0.43,0.93
5050,0.03,-0.43,0.92
5069,0.04,-0.43,0.90
5087,0.05,-0.44,0.91
5106,0.07,-0.44,0.92
5124,0.04,-0.40,0.85
5143,0.06,-0.43,1.01
5161,0.04,-0.42,0.89
5180,0.07,-0.43,0.93
5198,0.06,-0.44,0.95
5217,0.02,-0.44,0.94
5235,-0.01,-0.44,0.93
5254,-0.07,-0.44,0.91
5272,-0.11,-0.45,0.90
5291,-0.10,-0.45,0.88
5309,-0.09,-0.44,0.88
5328,-0.09,-0.44,0.91
5346,-0.08,-0.43,0.98
5365,-0.01,-0.43,1.02
5383,-0.07,-0.43,1.09
5402,-0.03,-0.45,1.10
5420,-0.10,-0.44,1.06
5439,-0.10,-0.43,0.90
5457,-0.14,-0.43,0.87
5476,-0.16,-0.43,0.88
5494,-0.26,-0.44,0.95
5513,-0.29,-0.45,1.09
5531,-0.20,-0.43,1.11
5550,-0.01,-0.43,0.88
5568,0.18,-0.43,0.86
5587,0.30,-0.42,0.83
5605,0.37,-0.42,0.83
5624,0.36,-0.42,0.91
5642,0.33,-0.45,0.97
5661,0.26,-0.43,1.01
5679,0.24,-0.42,1.00
5698,0.35,-0.44,0.99
5716,0.37,-0.41,0.88
5735,0.40,-0.42,0.90
5753,0.36,-0.44,1.01
5772,0.26,-0.45,1.11
5790,0.20,-0.46,1.21
5809,0.24,-0.48,1.26
5827,0.32,-0.49,1.31
5846,0.49,-0.59,1.27
5864,0.46,-0.50,1.22
5883,0.42,-0.55,1.14
5901,0.25,-0.59,1.25
5920,0.15,-0.60,1.29
5938,0.24,-0.53,1.26
5957,0.31,-0.56,1.46
5975,0.40,-0.54,1.42
5994,0.43,-0.52,1.55
6012,0.41,-0.53,1.60
6031,0.37,-0.53,1.60
6049,0.38,-0.53,1.52
6068,0.43,-0.53,1.25
6086,0.48,-0.46,1.23
6105,0.52,-0.44,0.92
6123,0.41,-0.38,0.77
6142,0.52,-0.44,0.74
6160,0.58,-0.29,1.02
6179,0.74,-0.36,1.03
6197,0.91,-0.35,1.11
6216,0.97,-0.31,1.07
6234,0.96,-0.30,1.02
6253,0.83,-0.27,1.06
6271,0.69,-0.28,0.95
6290,0.68,-0.28,0.87
6308,0.67,-0.29,0.75
6327,0.66,-0.30,0.66
6345,0.63,-0.29,0.56
6364,0.60,-0.31,0.49
6382,0.47,-0.34,0.48
6401,0.47,-0.35,0.46
6419,0.48,-0.36,0.44
6438,0.46,-0.36,0.36
6456,0.43,-0.36,0.28
6475,0.28,-0.36,0.19
6493,0.21,-0.35,0.06
6512,0.13,-0.40,0.06
6530,0.09,-0.41,0.09
6549,0.10,-0.40,-0.03
6567,0.19,-0.43,0.05
6586,0.26,-0.41,0.04
6604,0.29,-0.40,-0.15
6623,0.21,-0.40,-0.11
6641,0.17,-0.39,-0.18
6660,0.06,-0.38,-0.30
6678,0.12,-0.39,-0.33
6697,0.12,-0.38,-0.39
6715,0.18,-0.38,-0.36
6734,0.19,-0.37,-0.41
6752,0.14,-0.37,-0.46
6771,0.15,-0.37,-0.47
6789,0.19,-0.37,-0.53
6808,0.18,-0.36,-0.64
6826,0.13,-0.36,-0.63
6845,0.10,-0.37,-0.63
6863,0.12,-0.33,-0.68
6882,0.09,-0.31,-0.84
6900,0.13,-0.27,-0.91
6919,0.14,-0.25,-1.09
6937,0.08,-0.21,-1.30
6956,0.07,-0.19,-1.45
6974,0.00,-0.18,-1.56
6993,-0.06,-0.13,-1.78
7011,-0.18,-0.09,-2.11
7030,-0.29,-0.13,-2.30
7048,-0.38,-0.11,-2.41
7067,-0.44,-0.15,-2.21
7085,-0.48,-0.15,-2.05
7104,-0.38,-0.18,-1.87
7122,-0.28,-0.20,-1.74
7141,-0.17,-0.21,-1.61
7159,-0.14,-0.21,-1.53
7178,-0.13,-0.22,-1.41
7196,-0.13,-0.22,-1.33
7215,-0.09,-0.21,-1.32
7233,-0.07,-0.22,-1.28
7252,-0.08,-0.22,-1.22
7270,-0.05,-0.24,-1.12
7289,-0.10,-0.24,-1.05
7307,-0.10,-0.25,-1.04
7326,-0.14,-0.22,-1.02
7344,-0.08,-0.25,-0.96
7363,-0.08,-0.21,-0.95
7381,-0.01,-0.23,-0.93
7400,0.06,-0.21,-0.92
7418,0.13,-0.18,-0.85
7437,-0.03,-0.23,-0.65
7455,-0.14,-0.20,-0.51
7474,-0.26,-0.22,-0.36
7492,-0.28,-0.23,-0.34
7511,-0.28,-0.22,-0.31
7529,-0.20,-0.20,-0.29
7548,-0.04,-0.15,-0.31
7566,0.16,-0.10,-0.24
7585,0.29,-0.07,0.05
7603,0.49,-0.11,0.51
7622,0.66,-0.16,0.92
7640,0.46,-0.25,1.21
7659,-0.04,-0.34,1.24
7677,-0.42,-0.40,0.92
7696,-0.46,-0.42,0.67
7714,-0.37,-0.40,0.47
7733,-0.15,-0.34,0.43
7751,0.15,-0.32,0.70
7770,0.36,-0.33,1.01
7788,0.50,-0.37,1.22
7807,0.50,-0.42,1.41
7825,0.30,-0.46,1.33
7844,-0.16,-0.51,1.13
7862,-0.41,-0.49,0.85
7881,-0.54,-0.47,0.82
7899,-0.45,-0.46,0.86
7918,-0.19,-0.42,0.83
7936,0.03,-0.37,0.89
7955,0.17,-0.36,1.09
7973,0.27,-0.35,1.19
7992,0.23,-0.33,1.36
8010,0.07,-0.37,1.35
8029,-0.03,-0.37,1.30
8047,-0.22,-0.37,1.26
8066,-0.28,-0.41,1.30
8084,-0.07,-0.42,1.14
8103,0.00,-0.33,1.31
8121,0.11,-0.29,1.21
8140,0.14,-0.29,1.33
8158,0.21,-0.31,1.60
8177,0.17,-0.32,1.61
8195,0.17,-0.33,1.70
8214,0.12,-0.34,1.52
8232,0.12,-0.34,1.40
8251,0.13,-0.34,1.34
8269,0.12,-0.34,1.28
8288,0.12,-0.33,1.25
8306,0.10,-0.33,1.24
8325,0.10,-0.33,1.22
8343,0.09,-0.32,1.21
8362,0.12,-0.32,1.24
8380,0.10,-0.31,1.29
8399,0.06,-0.30,1.28
8417,0.06,-0.29,1.24
8436,0.00,-0.27,1.20
8454,0.02,-0.27,1.22
8473,0.04,-0.25,1.19
8491,0.08,-0.25,1.13
8510,0.11,-0.23,1.09
8528,0.10,-0.23,1.07
8547,0.09,-0.23,1.06
8565,0.10,-0.22,1.03
8584,0.11,-0.22,1.03
8602,0.13,-0.22,1.04
8621,0.11,-0.22,1.03
8639,0.03,-0.22,1.05
8658,0.01,-0.22,1.06
8676,0.01,-0.21,1.05
8695,0.03,-0.22,1.09
8713,0.03,-0.23,1.08
8732,0.04,-0.23,1.07
8750,0.05,-0.22,1.02
8769,0.00,-0.21,1.06
8787,0.02,-0.22,1.07
8806,0.02,-0.23,1.07
8824,-0.00,-0.21,1.09
8843,0.00,-0.22,1.08
8861,0.01,-0.22,1.07
8880,0.01,-0.21,1.06
8898,0.02,-0.21,1.07
8917,0.01,-0.21,1.09
8935,0.00,-0.20,1.09
8954,-0.01,-0.20,1.06
8972,-0.01,-0.20,1.05
8991,-0.01,-0.20,1.04
9009,-0.00,-0.20,1.04
9028,-0.00,-0.19,1.04
9046,-0.00,-0.19,1.01
9065,-0.01,-0.19,1.02
9083,-0.02,-0.19,0.98
9102,-0.02,-0.19,0.98
9120,0.01,-0.19,0.98
9139,0.01,-0.19,0.99
9157,0.04,-0.19,0.98
9176,0.05,-0.19,0.97
9194,0.05,-0.19,0.95
9213,0.07,-0.20,0.97
9231,0.07,-0.19,0.99
9250,0.05,-0.19,0.98
9268,0.03,-0.19,0.97
9287,0.02,-0.20,0.95
9305,0.03,-0.20,0.97
9324,0.06,-0.20,0.97
9342,0.05,-0.20,0.96
9361,0.05,-0.20,0.97
9379,0.04,-0.20,0.95
9398,0.04,-0.20,0.97
9416,0.04,-0.20,0.99
9435,0.04,-0.20,0.99
9453,0.06,-0.20,0.99
9472,0.05,-0.19,1.00
9490,0.04,-0.19,1.00
9509,0.04,-0.20,1.02
9527,0.04,-0.20,1.03
9546,0.05,-0.20,1.01
9564,0.05,-0.20,1.01
9583,0.03,-0.20,1.00
9601,0.02,-0.20,1.03
9620,0.05,-0.20,1.06
9638,0.07,-0.20,1.07
9657,0.06,-0.20,1.08
9675,0.05,-0.20,1.07
9694,0.04,-0.20,1.03
9712,0.05,-0.20,1.04
9731,0.04,-0.21,1.02
9749,0.04,-0.21,1.04
9768,0.03,-0.21,1.01
9786,0.04,-0.21,0.99
9805,0.05,-0.20,0.97
9823,0.08,-0.20,0.99
9842,0.07,-0.20,0.99
9860,0.06,-0.20,0.96
9879,0.04,-0.19,0.97
9897,0.02,-0.19,0.97
9916,0.04,-0.20,0.96
9934,0.05,-0.20,0.97
9953,0.06,-0.19,0.96
9971,0.07,-0.20,0.97
9990,0.06,-0.20,0.98
10008,0.04,-0.20,1.01
10027,0.04,-0.21,1.06
10045,0.04,-0.21,1.11
10064,0.04,-0.22,1.14
10082,0.04,-0.23,1.20
10101,0.06,-0.25,1.24
10119,0.06,-0.26,1.28
10138,0.04,-0.27,1.29
10156,0.01,-0.29,1.32
10175,-0.03,-0.29,1.32
10193,-0.01,-0.29,1.41
10212,0.05,-0.30,1.46
10230,0.12,-0.29,1.47
10249,0.19,-0.31,1.48
10267,0.27,-0.31,1.49
10286,0.27,-0.32,1.51
10304,0.22,-0.33,1.52
10323,0.21,-0.34,1.54
10341,0.16,-0.34,1.45
10360,0.18,-0.34,1.51
10378,0.20,-0.35,1.50
10397,0.24,-0.36,1.55
10415,0.33,-0.36,1.44
10434,0.33,-0.36,1.37
10452,0.28,-0.37,1.22
10471,0.29,-0.38,1.23
10489,0.22,-0.39,1.31
10508,0.23,-0.39,1.32
10526,0.27,-0.40,1.27
10545,0.33,-0.40,1.18
10563,0.33,-0.40,1.13
10582,0.32,-0.39,1.10
10600,0.33,-0.44,1.02
10619,0.30,-0.43,0.88
10637,0.26,-0.44,0.83
10656,0.20,-0.44,0.83
10674,0.24,-0.49,0.88
10693,0.29,-0.47,0.85
10711,0.24,-0.49,0.82
10730,0.22,-0.49,0.72
10748,0.10,-0.51,0.73
10767,0.01,-0.52,0.69
10785,0.04,-0.55,0.65
10804,0.09,-0.57,0.55
10822,0.10,-0.57,0.55
10841,0.04,-0.57,0.42
10859,-0.04,-0.58,0.40
10878,-0.04,-0.57,0.31
10896,-0.02,-0.59,0.31
10915,0.02,-0.61,0.43
10933,0.03,-0.61,0.38
10952,0.05,-0.62,0.32
10970,0.07,-0.62,0.27
10989,0.04,-0.61,0.16
11007,-0.04,-0.62,0.10
11026,-0.10,-0.63,0.13
11044,-0.10,-0.65,0.15
11063,-0.06,-0.66,0.12
11081,0.01,-0.66,0.08
11100,0.02,-0.66,0.00
11118,-0.08,-0.66,-0.01
11137,-0.13,-0.66,-0.01
11155,-0.08,-0.66,-0.09
11174,-0.06,-0.65,-0.17
11192,-0.01,-0.65,-0.24
11211,-0.00,-0.64,-0.22
11229,-0.05,-0.64,-0.25
11248,-0.12,-0.64,-0.30
11266,-0.17,-0.64,-0.39
11285,-0.21,-0.64,-0.45
11303,-0.23,-0.65,-0.49
11322,-0.23,-0.66,-0.48
11340,-0.16,-0.67,-0.51
11359,-0.09,-0.66,-0.53
11377,-0.06,-0.66,-0.47
11396,-0.08,-0.65,-0.41
11414,-0.10,-0.65,-0.46
11433,-0.15,-0.64,-0.47
11451,-0.16,-0.64,-0.49
11470,-0.19,-0.63,-0.53
11488,-0.18,-0.62,-0.60
11507,-0.20,-0.63,-0.64
11525,-0.16,-0.62,-0.70
11544,-0.13,-0.62,-0.66
11562,-0.13,-0.61,-0.72
11581,-0.18,-0.61,-0.72
11599,-0.18,-0.60,-0.76
11618,-0.18,-0.60,-0.76
11636,-0.16,-0.59,-0.72
11655,-0.16,-0.60,-0.71
11673,-0.15,-0.60,-0.74
11692,-0.15,-0.60,-0.78
11710,-0.15,-0.59,-0.82
11729,-0.15,-0.59,-0.82
11747,-0.16,-0.59,-0.77
11766,-0.17,-0.59,-0.74
11784,-0.13,-0.58,-0.78
11803,-0.12,-0.58,-0.80
11821,-0.15,-0.58,-0.78
11840,-0.14,-0.57,-0.82
11858,-0.13,-0.58,-0.81
11877,-0.11,-0.57,-0.83
11895,-0.12,-0.57,-0.81
11914,-0.13,-0.57,-0.81
11932,-0.13,-0.58,-0.81
11951,-0.15,-0.58,-0.78
11969,-0.16,-0.58,-0.80
11988,-0.14,-0.58,-0.80
12006,-0.13,-0.58,-0.81
12025,-0.15,-0.57,-0.80
12043,-0.16,-0.56,-0.80
12062,-0.14,-0.57,-0.83
12080,-0.16,-0.57,-0.80
12099,-0.18,-0.57,-0.84
12117,-0.21,-0.57,-0.85
12136,-0.21,-0.57,-0.85
12154,-0.19,-0.56,-0.91
12173,-0.19,-0.56,-0.90
12191,-0.21,-0.55,-0.89
12210,-0.22,-0.55,-0.89
12228,-0.23,-0.54,-0.90
12247,-0.20,-0.54,-0.93
12265,-0.19,-0.53,-0.95
12284,-0.19,-0.52,-0.98
12302,-0.22,-0.50,-1.00
12321,-0.25,-0.49,-1.07
12339,-0.26,-0.46,-1.10
12358,-0.27,-0.43,-1.15
12376,-0.24,-0.41,-1.19
12395,-0.26,-0.39,-1.21
12413,-0.32,-0.37,-1.21
12432,-0.32,-0.35,-1.24
12450,-0.33,-0.35,-1.30
12469,-0.35,-0.34,-1.35
12487,-0.32,-0.33,-1.35
12506,-0.29,-0.32,-1.27
12524,-0.24,-0.32,-1.23
12543,-0.18,-0.32,-1.21
12561,-0.15,-0.32,-1.15
12580,-0.09,-0.32,-1.11
12598,-0.15,-0.31,-1.07
12617,-0.23,-0.32,-0.98
12635,-0.25,-0.32,-0.97
12654,-0.22,-0.32,-0.97
12672,-0.14,-0.34,-0.92
12691,-0.10,-0.36,-0.83
12709,-0.06,-0.40,-0.72
12728,-0.08,-0.41,-0.67
12746,0.01,-0.43,-0.62
12765,0.11,-0.43,-0.58
12783,-0.02,-0.45,-0.48
12802,-0.15,-0.49,-0.15
12820,-0.31,-0.53,-0.05
12839,-0.40,-0.59,0.13
12857,-0.34,-0.62,0.07
12876,-0.13,-0.63,-0.09
12894,-0.02,-0.65,-0.04
12913,-0.02,-0.66,-0.05
12931,-0.02,-0.67,-0.03
12950,0.02,-0.68,-0.01
12968,0.03,-0.68,0.05
12987,-0.05,-0.67,0.21
13005,-0.15,-0.69,0.33
13024,-0.16,-0.71,0.40
13042,0.04,-0.71,0.27
13061,0.16,-0.71,0.25
13079,0.21,-0.72,0.29
13098,0.22,-0.73,0.29
13116,0.17,-0.72,0.22
13135,0.04,-0.71,0.29
13153,-0.10,-0.70,0.37
13172,-0.18,-0.71,0.54
13190,-0.12,-0.72,0.56
13209,0.02,-0.73,0.54
13227,0.12,-0.72,0.41
13246,0.15,-0.73,0.43
13264,0.21,-0.72,0.47
13283,0.23,-0.69,0.45
13301,0.11,-0.67,0.56
13320,-0.09,-0.61,0.70
13338,-0.31,-0.69,0.81
13357,-0.30,-0.69,0.76
13375,-0.29,-0.68,0.72
13394,-0.22,-0.68,0.69
13412,-0.16,-0.67,0.72
13431,-0.10,-0.65,0.80
13449,0.00,-0.64,0.86
13468,0.10,-0.63,0.92
13486,0.07,-0.62,1.02
13505,-0.10,-0.63,1.10
13523,-0.14,-0.63,1.05
13542,-0.10,-0.62,0.95
13560,-0.09,-0.63,0.92
13579,-0.05,-0.60,0.97
13597,-0.07,-0.63,1.02
13616,-0.08,-0.59,1.04
13634,-0.09,-0.59,1.11
13653,-0.04,-0.58,1.16
13671,-0.00,-0.58,1.12
13690,0.03,-0.58,1.07
13708,0.04,-0.59,1.07
13727,0.01,-0.58,1.03
13745,-0.06,-0.60,1.06
13764,-0.03,-0.62,0.91
13782,-0.08,-0.55,1.09
13801,-0.08,-0.57,1.03
13819,-0.03,-0.56,1.12
13838,-0.06,-0.56,1.13
13856,-0.03,-0.56,1.10
13875,0.02,-0.56,1.05
13893,0.02,-0.52,1.05
13912,-0.00,-0.53,1.06
13930,-0.03,-0.52,1.05
13949,-0.05,-0.54,1.01
13967,-0.05,-0.54,1.01
13986,-0.05,-0.54,1.00
14004,-0.03,-0.52,0.99
14023,-0.03,-0.52,0.99
14041,-0.04,-0.52,0.97
14060,-0.04,-0.50,0.95
14078,-0.03,-0.49,0.92
14097,0.01,-0.48,0.91
14115,0.04,-0.47,0.90
14134,0.05,-0.46,0.91
14152,-0.01,-0.45,0.91
14171,-0.03,-0.45,0.96
14189,-0.01,-0.46,0.97
14208,-0.01,-0.45,1.00
14226,-0.01,-0.44,0.99
14245,-0.01,-0.44,0.99
14263,-0.03,-0.43,0.98
14282,-0.02,-0.43,0.95
14300,-0.05,-0.43,0.99
14319,-0.04,-0.43,0.99
14337,0.00,-0.42,0.97
14356,0.02,-0.42,0.99
14374,0.01,-0.42,0.99
14393,-0.02,-0.41,1.00
14411,-0.03,-0.41,1.01
14430,-0.02,-0.41,1.00
14448,0.01,-0.41,0.98
14467,-0.02,-0.41,0.98
14485,-0.05,-0.41,1.01
14504,-0.06,-0.40,0.99
14522,-0.05,-0.39,0.97
14541,-0.04,-0.39,0.97
14559,-0.03,-0.39,0.99
14578,-0.03,-0.39,0.99
14596,-0.03,-0.38,0.97
14615,-0.03,-0.37,1.01
14633,-0.05,-0.37,0.99
14652,-0.03,-0.37,1.00
14670,-0.04,-0.36,1.01
14689,-0.04,-0.36,0.99
14707,-0.03,-0.36,0.97
14726,-0.01,-0.36,0.96
14744,-0.00,-0.35,0.97
14763,0.01,-0.36,0.96
14781,0.00,-0.35,1.01
14800,-0.01,-0.36,1.02
14818,-0.02,-0.37,1.02
14837,-0.03,-0.36,0.99
14855,-0.07,-0.37,0.99
14874,-0.08,-0.35,0.96
14892,-0.06,-0.36,1.00
14911,-0.02,-0.37,0.99
14929,-0.03,-0.36,1.00
14948,-0.03,-0.36,1.03
14966,-0.03,-0.36,1.00
14985,-0.03,-0.36,1.01
15003,-0.05,-0.35,1.00
15022,-0.06,-0.36,1.01
15040,-0.07,-0.36,1.01
15059,-0.05,-0.36,1.03
15077,-0.04,-0.36,1.02
15096,-0.02,-0.36,1.03
15114,-0.02,-0.35,1.00
15133,-0.03,-0.35,1.00
15151,-0.05,-0.35,0.99
15170,-0.04,-0.35,1.00
15188,-0.04,-0.35,1.00
15207,-0.03,-0.36,1.03
15225,-0.04,-0.36,1.06
15244,-0.04,-0.36,1.05
15262,-0.03,-0.36,1.07
15281,-0.01,-0.37,1.07
15299,0.00,-0.37,1.09
15318,0.01,-0.37,1.05
15336,0.00,-0.38,1.08
15355,-0.02,-0.38,1.09
15373,-0.04,-0.40,1.06
15392,-0.04,-0.37,1.04
15410,-0.03,-0.37,1.07
15429,-0.04,-0.38,1.04
15447,-0.02,-0.40,1.28
15466,-0.00,-0.40,1.14
15484,0.02,-0.40,1.20
15503,0.04,-0.40,1.15
15521,0.03,-0.39,1.21
15540,0.03,-0.41,1.22
15558,0.05,-0.42,1.22
15577,0.06,-0.42,1.24
15595,0.05,-0.43,1.30
15614,0.05,-0.43,1.29
15632,0.04,-0.42,1.28
15651,0.04,-0.44,1.29
15669,0.05,-0.45,1.25
15688,0.06,-0.45,1.23
15706,0.09,-0.46,1.22
15725,0.08,-0.46,1.21
15743,0.06,-0.48,1.25
15762,0.04,-0.48,1.23
15780,0.08,-0.49,1.20
15799,0.06,-0.49,1.16
15817,0.05,-0.49,1.11
15836,0.09,-0.50,1.13
15854,0.05,-0.49,1.06
15873,0.09,-0.51,1.17
15891,0.07,-0.51,1.15
15910,0.07,-0.52,1.14
15928,0.10,-0.51,1.07
15947,0.12,-0.49,1.02
15965,0.11,-0.46,1.07
15984,0.13,-0.54,0.91
16002,0.10,-0.56,0.94
16021,0.08,-0.57,0.94
16039,0.08,-0.54,0.90
16058,0.09,-0.59,0.85
16076,0.06,-0.59,0.76
16095,0.06,-0.60,0.79
16113,0.02,-0.61,0.67
16132,-0.02,-0.64,0.67
16150,0.05,-0.64,0.69
16169,0.11,-0.66,0.72
16187,0.11,-0.66,0.65
16206,0.08,-0.67,0.65
16224,0.03,-0.67,0.63
16243,-0.03,-0.67,0.56
16261,-0.03,-0.68,0.51
16280,-0.04,-0.69,0.49
16298,-0.01,-0.68,0.40
16317,-0.07,-0.68,0.35
16335,-0.11,-0.69,0.46
16354,-0.03,-0.68,0.41
16372,0.02,-0.68,0.32
16391,0.05,-0.68,0.23
16409,-0.04,-0.68,0.13
16428,-0.08,-0.68,0.12
16446,-0.07,-0.69,0.14
16465,-0.01,-0.68,0.16
16483,0.04,-0.67,0.10
16502,0.04,-0.66,0.08
16520,-0.04,-0.65,0.05
16539,-0.03,-0.64,-0.06
16557,-0.10,-0.64,-0.16
16576,-0.13,-0.64,-0.14
16594,-0.08,-0.65,-0.15
16613,-0.04,-0.63,-0.18
16631,-0.02,-0.63,-0.21
16650,-0.03,-0.63,-0.22
16668,-0.03,-0.63,-0.30
16687,-0.07,-0.61,-0.37
16705,-0.07,-0.61,-0.44
16724,-0.08,-0.61,-0.49
16742,-0.14,-0.60,-0.53
16761,-0.15,-0.60,-0.54
16779,-0.15,-0.61,-0.56
16798,-0.10,-0.59,-0.60
16816,-0.12,-0.60,-0.61
16835,-0.14,-0.60,-0.60
16853,-0.12,-0.60,-0.63
16872,-0.10,-0.60,-0.68
16890,-0.03,-0.60,-0.73
16909,-0.01,-0.59,-0.71
16927,-0.04,-0.59,-0.70
16946,-0.09,-0.59,-0.72
16964,-0.10,-0.58,-0.71
16983,-0.05,-0.57,-0.76
17001,-0.01,-0.57,-0.79
17020,-0.04,-0.56,-0.81
17038,-0.07,-0.55,-0.80
17057,-0.09,-0.55,-0.88
17075,-0.07,-0.54,-0.90
17094,-0.07,-0.54,-0.90
17112,-0.06,-0.53,-0.91
17131,-0.06,-0.52,-0.88
17149,-0.05,-0.52,-0.90
17168,-0.02,-0.51,-0.92
17186,-0.04,-0.51,-0.92
17205,-0.05,-0.51,-0.94
17223,-0.06,-0.50,-0.98
17242,-0.11,-0.50,-1.02
17260,-0.12,-0.51,-1.01
17279,-0.10,-0.50,-1.04
17297,-0.10,-0.51,-1.01
17316,-0.10,-0.52,-0.95
17334,-0.07,-0.52,-0.90
17353,-0.04,-0.54,-0.90
17371,-0.01,-0.54,-0.90
17390,-0.01,-0.55,-0.89
17408,-0.04,-0.55,-0.88
17427,-0.07,-0.56,-0.87
17445,-0.12,-0.57,-0.82
17464,-0.10,-0.58,-0.83
17482,-0.09,-0.59,-0.81
17501,-0.07,-0.59,-0.80
17519,-0.09,-0.59,-0.79
17538,-0.10,-0.60,-0.79
17556,-0.11,-0.60,-0.82
17575,-0.11,-0.60,-0.85
17593,-0.12,-0.60,-0.87
17612,-0.11,-0.59,-0.86
17630,-0.08,-0.59,-0.81
17649,-0.06,-0.58,-0.79
17667,-0.08,-0.59,-0.77
17686,-0.06,-0.58,-0.82
17704,-0.05,-0.57,-0.86
17723,-0.06,-0.56,-0.89
17741,-0.05,-0.55,-0.94
17760,-0.06,-0.54,-0.95
17778,-0.08,-0.54,-0.95
17797,-0.07,-0.53,-0.96
17815,-0.05,-0.53,-0.93
17834,-0.04,-0.53,-0.91
17852,-0.08,-0.55,-0.84
17871,-0.08,-0.56,-0.82
17889,-0.06,-0.57,-0.82
17908,-0.05,-0.58,-0.81
17926,-0.08,-0.60,-0.77
17945,-0.05,-0.61,-0.76
17963,-0.03,-0.62,-0.75
17982,-0.01,-0.62,-0.78
18000,-0.03,-0.62,-0.80
18019,-0.05,-0.62,-0.75
18037,-0.07,-0.61,-0.77
18056,-0.05,-0.60,-0.83
18074,-0.07,-0.60,-0.81
18093,-0.17,-0.61,-0.72
18111,-0.22,-0.63,-0.64
18130,-0.17,-0.61,-0.67
18148,-0.16,-0.67,-0.67
18167,-0.11,-0.65,-0.68
18185,-0.06,-0.67,-0.68
18204,-0.04,-0.65,-0.70
18222,-0.00,-0.64,-0.79
18241,-0.01,-0.62,-0.82
18259,-0.01,-0.61,-0.93
18278,0.00,-0.60,-1.00
18296,-0.03,-0.59,-0.96
18315,-0.07,-0.58,-0.91
18333,-0.09,-0.57,-0.94
18352,-0.10,-0.55,-1.02
18370,-0.09,-0.53,-1.06
18389,-0.10,-0.51,-1.08
18407,-0.09,-0.49,-1.14
18426,-0.05,-0.47,-1.17
18444,-0.06,-0.45,-1.18
18463,-0.02,-0.43,-1.18
18481,-0.05,-0.42,-1.15
18500,-0.09,-0.41,-1.10
18518,-0.08,-0.41,-1.10
18537,-0.08,-0.41,-1.02
18555,-0.06,-0.41,-1.00
18574,-0.07,-0.42,-0.95
18592,-0.08,-0.43,-0.92
18611,-0.05,-0.43,-0.88
18629,-0.02,-0.41,-0.89
18648,0.05,-0.41,-0.95
18666,0.07,-0.42,-0.71
18685,0.03,-0.42,-0.66
18703,-0.05,-0.44,-0.48
18722,-0.30,-0.50,-0.19
18740,-0.38,-0.54,-0.13
18759,-0.34,-0.58,-0.16
18777,-0.31,-0.60,-0.24
18796,-0.21,-0.62,-0.12
18814,-0.12,-0.65,-0.12
18833,0.08,-0.66,-0.11
18851,0.27,-0.66,-0.10
18870,0.28,-0.64,-0.05
18888,-0.18,-0.67,0.27
18907,-0.50,-0.70,0.34
18925,-0.50,-0.71,0.21
18944,-0.37,-0.71,0.17
18962,-0.24,-0.69,0.09
18981,-0.14,-0.70,0.15
18999,0.05,-0.70,0.18
19018,0.15,-0.67,0.11
19036,0.15,-0.65,0.25
19055,-0.01,-0.66,0.39
19073,-0.16,-0.66,0.45
19092,-0.22,-0.65,0.42
19110,-0.14,-0.64,0.32
19129,-0.13,-0.62,0.31
19147,-0.06,-0.62,0.41
19166,-0.04,-0.60,0.33
19184,0.08,-0.58,0.40
19203,0.23,-0.55,0.42
19221,0.12,-0.52,0.53
19240,-0.42,-0.52,0.89
19258,-0.58,-0.56,0.91
19277,-0.43,-0.55,0.81
19295,-0.23,-0.54,0.77
19314,-0.14,-0.55,0.94
19332,-0.05,-0.61,1.05
19351,-0.01,-0.56,1.10
19369,0.12,-0.54,1.12
19388,0.01,-0.50,1.05
19406,-0.28,-0.54,1.25
19425,-0.35,-0.52,1.13
19443,-0.27,-0.49,1.10
19462,-0.14,-0.49,1.11
19480,-0.02,-0.53,1.22
19499,0.10,-0.52,1.17
19517,0.12,-0.50,1.30
19536,0.02,-0.47,1.18
19554,-0.07,-0.46,1.18
19573,-0.13,-0.46,1.14
19591,-0.12,-0.46,1.12
19610,-0.10,-0.45,1.11
19628,-0.08,-0.45,1.15
19647,-0.10,-0.44,1.19
19665,-0.08,-0.42,1.12
19684,-0.08,-0.41,1.14
19702,-0.16,-0.41,1.17
19721,-0.15,-0.41,1.17
19739,-0.09,-0.40,1.09
19758,-0.03,-0.36,1.10
19776,-0.02,-0.39,1.10
19795,-0.07,-0.39,1.04
19813,-0.11,-0.37,1.05
19832,-0.14,-0.36,0.99
19850,-0.13,-0.36,1.02
19869,-0.13,-0.36,1.00
19887,-0.12,-0.35,0.99
19906,-0.13,-0.35,0.98
19924,-0.16,-0.34,1.06
19943,-0.13,-0.34,1.07
19961,-0.06,-0.31,0.98
19980,-0.05,-0.30,0.95
19998,-0.06,-0.28,0.93
20017,-0.04,-0.29,0.99
20035,-0.10,-0.32,1.03
20054,-0.67,-0.31,1.29
20072,-0.58,-0.32,1.33
20091,-0.46,-0.31,1.21
20109,-0.32,-0.27,1.45
20128,0.10,-0.27,1.20
20146,0.28,-0.25,1.14
20165,0.29,-0.25,0.98
20183,0.26,-0.24,0.91
20202,0.29,-0.24,0.87
20220,0.23,-0.24,0.91
20239,0.01,-0.22,0.96
20257,-0.10,-0.22,1.03
20276,-0.18,-0.22,1.07
20294,-0.15,-0.24,1.17
20313,-0.14,-0.24,1.19
20331,-0.11,-0.24,1.09
20350,-0.10,-0.24,1.09
20368,-0.06,-0.24,1.09
20387,0.01,-0.23,1.06
20405,0.02,-0.24,1.05
20424,-0.02,-0.24,1.09
20442,-0.05,-0.24,1.09
20461,-0.10,-0.23,1.05
20479,-0.12,-0.24,1.09
20498,-0.13,-0.23,1.13
20516,-0.10,-0.22,1.09
20535,-0.08,-0.21,1.03
20553,-0.03,-0.22,1.07
20572,-0.07,-0.22,1.11
20590,-0.03,-0.21,1.05
20609,-0.05,-0.20,1.03
20627,-0.04,-0.20,1.02
20646,-0.06,-0.20,1.04
20664,-0.07,-0.19,1.01
20683,-0.10,-0.18,0.97
20701,-0.11,-0.19,0.94
20720,-0.12,-0.19,0.95
20738,-0.10,-0.19,0.94
20757,-0.08,-0.19,0.96
20775,-0.06,-0.19,0.98
20794,-0.08,-0.20,0.99
20812,-0.09,-0.20,0.99
20831,-0.09,-0.20,1.03
20849,-0.08,-0.20,1.00
20868,-0.08,-0.20,1.01
20886,-0.09,-0.21,1.02
20905,-0.08,-0.20,1.00
20923,-0.09,-0.21,0.99
20942,-0.07,-0.21,1.04
20960,-0.04,-0.21,1.03
20979,-0.03,-0.21,1.01
20997,-0.03,-0.21,1.01
21016,-0.05,-0.22,1.02
21034,-0.09,-0.22,1.03
21053,-0.11,-0.22,1.02
21071,-0.11,-0.22,1.02
21090,-0.12,-0.22,1.05
21108,-0.11,-0.21,1.04
21127,-0.08,-0.21,1.04
21145,-0.06,-0.21,1.05
21164,-0.04,-0.22,1.09
21182,-0.03,-0.22,1.10
21201,-0.12,-0.22,1.14
21219,-0.04,-0.24,1.18
21238,-0.10,-0.23,1.13
21256,-0.07,-0.24,1.17
21275,-0.07,-0.25,1.16
21293,-0.10,-0.25,1.19
21312,-0.11,-0.26,1.24
21330,-0.14,-0.27,1.31
21349,-0.15,-0.25,1.25
21367,-0.05,-0.28,1.46
21386,-0.06,-0.27,1.21
21404,0.05,-0.28,1.20
21423,-0.00,-0.29,1.33
21441,-0.04,-0.31,1.36
21460,-0.02,-0.31,1.41
21478,-0.01,-0.32,1.44
21497,0.03,-0.32,1.40
21515,0.10,-0.33,1.38
21534,0.14,-0.34,1.34
21552,0.18,-0.35,1.27
21571,0.12,-0.36,1.26
21589,0.08,-0.38,1.32
21608,0.10,-0.39,1.30
21626,0.11,-0.38,1.25
21645,0.10,-0.39,1.30
21663,0.07,-0.41,1.31
21682,0.01,-0.40,1.28
21700,0.02,-0.36,1.26
21719,0.04,-0.45,1.28
21737,0.09,-0.42,1.10
21756,0.07,-0.43,1.05
21774,0.11,-0.45,1.04
21793,0.10,-0.46,0.99
21811,0.06,-0.46,0.98
21830,0.03,-0.48,0.91
21848,-0.07,-0.47,0.88
21867,-0.09,-0.51,0.87
21885,-0.08,-0.51,0.89
21904,-0.04,-0.52,0.78
21922,-0.02,-0.53,0.70
21941,0.01,-0.55,0.59
21959,0.04,-0.56,0.55
21978,-0.02,-0.59,0.50
21996,-0.12,-0.59,0.46
22015,-0.16,-0.62,0.44
22033,-0.18,-0.63,0.38
22052,-0.22,-0.65,0.38
22070,-0.18,-0.67,0.30
22089,-0.16,-0.69,0.27
22107,-0.09,-0.70,0.26
22126,-0.06,-0.70,0.25
22144,-0.10,-0.71,0.29
22163,-0.10,-0.71,0.28
22181,-0.13,-0.71,0.22
22200,-0.16,-0.72,0.20
22218,-0.17,-0.71,0.11
22237,-0.18,-0.73,0.11
22255,-0.15,-0.74,0.15
22274,-0.17,-0.73,0.08
22292,-0.17,-0.73,0.04
22311,-0.14,-0.73,-0.01
22329,-0.11,-0.73,-0.03
22348,-0.16,-0.74,-0.05
22366,-0.22,-0.74,0.01
22385,-0.20,-0.74,0.02
22403,-0.13,-0.73,0.00
22422,-0.04,-0.72,-0.09
22440,-0.08,-0.73,-0.11
22459,-0.11,-0.73,-0.13
22477,-0.19,-0.72,-0.24
22496,-0.21,-0.72,-0.29
22514,-0.20,-0.71,-0.30
22533,-0.18,-0.73,-0.26
22551,-0.16,-0.73,-0.20
22570,-0.05,-0.71,-0.27
22588,-0.02,-0.71,-0.31
22607,-0.04,-0.69,-0.35
22625,-0.06,-0.68,-0.45
22644,-0.08,-0.66,-0.50
22662,-0.14,-0.66,-0.50
22681,-0.15,-0.66,-0.49
22699,-0.14,-0.66,-0.57
22718,-0.08,-0.65,-0.62
22736,-0.07,-0.64,-0.65
22755,-0.07,-0.63,-0.71
22773,-0.09,-0.63,-0.74
22792,-0.06,-0.62,-0.74
22810,-0.04,-0.61,-0.76
22829,-0.10,-0.62,-0.73
22847,-0.12,-0.61,-0.74
22866,-0.13,-0.60,-0.77
22884,-0.13,-0.59,-0.81
22903,-0.13,-0.58,-0.84
22921,-0.15,-0.59,-0.88
22940,-0.14,-0.58,-0.97
22958,-0.18,-0.59,-0.94
22977,-0.19,-0.60,-0.87
22995,-0.10,-0.59,-0.90
23014,-0.04,-0.59,-0.87
23032,-0.08,-0.60,-0.83
23051,-0.04,-0.60,-0.89
23069,-0.10,-0.60,-0.91
23088,-0.10,-0.60,-0.97
23106,-0.13,-0.60,-0.95
23125,-0.11,-0.61,-0.91
23143,-0.07,-0.62,-0.85
23162,-0.03,-0.62,-0.84
23180,-0.05,-0.62,-0.80
23199,-0.08,-0.62,-0.78
23217,-0.10,-0.62,-0.78
23236,-0.09,-0.62,-0.81
23254,-0.07,-0.62,-0.84
23273,-0.06,-0.63,-0.81
23291,-0.09,-0.63,-0.78
23310,-0.04,-0.64,-0.83
23328,-0.05,-0.64,-0.82
23347,-0.11,-0.65,-0.77
23365,-0.10,-0.65,-0.81
23384,-0.09,-0.65,-0.81
23402,-0.10,-0.65,-0.77
23421,-0.09,-0.66,-0.76
23439,-0.08,-0.66,-0.76
23458,-0.09,-0.66,-0.77
23476,-0.09,-0.67,-0.73
23495,-0.09,-0.66,-0.75
23513,-0.09,-0.67,-0.74
23532,-0.11,-0.68,-0.76
23550,-0.14,-0.68,-0.73
23569,-0.14,-0.68,-0.77
23587,-0.14,-0.68,-0.76
23606,-0.16,-0.68,-0.71
23624,-0.14,-0.68,-0.68
23643,-0.12,-0.67,-0.70
23661,-0.06,-0.67,-0.78
23680,-0.07,-0.66,-0.75
23698,-0.15,-0.63,-0.92
23717,-0.13,-0.61,-0.96
23735,-0.16,-0.60,-0.95
23754,-0.18,-0.60,-0.89
23772,-0.15,-0.60,-0.86
23791,-0.11,-0.61,-0.85
23809,-0.11,-0.63,-0.81
23828,-0.10,-0.65,-0.79
23846,-0.07,-0.66,-0.75
23865,-0.07,-0.68,-0.72
23883,-0.08,-0.70,-0.67
23902,-0.08,-0.69,-0.67
23920,-0.09,-0.69,-0.72
23939,-0.09,-0.68,-0.77
23957,-0.15,-0.66,-0.81
23976,-0.16,-0.66,-0.79
23994,-0.15,-0.65,-0.84
24013,-0.16,-0.64,-0.87
24031,-0.16,-0.63,-0.85
24050,-0.13,-0.62,-0.96
24068,-0.14,-0.60,-0.93
24087,-0.12,-0.58,-0.96
24105,-0.09,-0.56,-1.00
24124,-0.06,-0.54,-1.06
24142,-0.09,-0.52,-1.02
24161,-0.13,-0.52,-0.95
24179,-0.13,-0.51,-0.94
24198,-0.17,-0.50,-0.91
24216,-0.20,-0.51,-0.82
24235,-0.23,-0.50,-0.78
24253,-0.16,-0.50,-0.75
24272,-0.13,-0.51,-0.69
24290,-0.07,-0.51,-0.66
24309,-0.03,-0.52,-0.60
24327,-0.12,-0.52,-0.48
24346,-0.08,-0.52,-0.44
24364,-0.02,-0.52,-0.44
24383,-0.11,-0.51,-0.33
24401,-0.18,-0.51,-0.19
24420,-0.31,-0.53,-0.01
24438,-0.40,-0.54,0.05
24457,-0.44,-0.55,0.07
24475,-0.32,-0.60,-0.00
24494,-0.20,-0.57,0.06
24512,-0.09,-0.57,0.04
24531,0.05,-0.55,0.09
24549,0.20,-0.53,0.15
24568,0.38,-0.54,0.33
24586,0.28,-0.53,0.43
24605,-0.13,-0.56,0.64
24623,-0.49,-0.59,0.58
24642,-0.63,-0.59,0.42
24660,-0.56,-0.57,0.25
24679,-0.36,-0.55,0.22
24697,-0.18,-0.53,0.36
24716,-0.05,-0.50,0.43
24734,0.16,-0.49,0.55
24753,0.21,-0.46,0.62
24771,-0.04,-0.46,0.83
24790,-0.42,-0.47,1.06
24808,-0.49,-0.48,1.07
24827,-0.46,-0.48,0.98
24845,-0.42,-0.56,1.01
24864,-0.28,-0.48,1.10
24882,-0.22,-0.53,1.16
24901,-0.12,-0.50,1.20
24919,-0.11,-0.51,1.17
24938,-0.08,-0.49,1.12
24956,-0.07,-0.48,1.12
24975,-0.17,-0.34,1.24
24993,-0.31,-0.43,1.37
25012,-0.40,-0.50,1.37
25030,-0.29,-0.50,1.34
25049,-0.20,-0.48,1.17
25067,-0.11,-0.47,1.12
25086,-0.09,-0.47,1.14
25104,-0.06,-0.46,1.13
25123,-0.04,-0.47,1.16
25141,-0.07,-0.45,1.11
25160,-0.09,-0.45,1.11
25178,-0.16,-0.44,1.09
25197,-0.19,-0.45,1.07
25215,-0.20,-0.45,0.97
25234,-0.17,-0.39,0.98
25252,-0.12,-0.38,1.02
25271,-0.09,-0.38,1.11
25289,-0.03,-0.39,1.05
25308,0.04,-0.33,1.06
25326,0.05,-0.32,0.96
25345,0.01,-0.28,1.02
25363,-0.05,-0.30,1.04
25382,-0.28,-0.30,1.14
25400,-0.35,-0.29,1.07
25419,-0.30,-0.26,0.95
25437,-0.24,-0.24,1.06
25456,-0.15,-0.25,1.11
25474,-0.09,-0.25,1.15
25493,-0.06,-0.21,1.10
25511,-0.00,-0.20,1.04
25530,-0.01,-0.18,0.94
25548,-0.04,-0.18,1.00
25567,-0.10,-0.18,1.02
25585,-0.23,-0.15,1.12
25604,-0.22,-0.16,1.13
25622,-0.19,-0.15,1.08
25641,-0.13,-0.07,1.06
25659,-0.11,-0.13,1.04
25678,-0.03,-0.12,1.11
25696,-0.02,-0.10,1.10
25715,-0.03,-0.11,1.16
25733,-0.06,-0.12,1.25
25752,-0.04,-0.12,1.34
25770,-0.08,-0.13,1.30
25789,-0.12,-0.12,1.27
25807,-0.16,-0.10,1.24
25826,-0.27,-0.11,1.25
25844,-0.39,-0.11,1.29
25863,-0.41,-0.11,1.27
25881,-0.38,-0.09,1.22
25900,-0.32,-0.07,1.12
25918,-0.27,-0.07,1.17
25937,-0.23,-0.09,1.16
25955,-0.18,-0.08,1.15
25974,-0.16,-0.07,1.08
25992,-0.12,-0.07,1.07
26011,-0.16,-0.06,1.06
26029,-0.23,-0.06,1.07
26048,-0.22,-0.05,1.05
26066,-0.21,-0.06,1.02
26085,-0.18,-0.05,1.01
26103,-0.17,-0.05,0.98
26122,-0.14,-0.05,1.00
26140,-0.13,-0.05,0.97
26159,-0.13,-0.04,0.93
26177,-0.14,-0.05,0.98
26196,-0.16,-0.05,1.03
26214,-0.16,-0.05,1.01
26233,-0.17,-0.05,1.03
26251,-0.18,-0.05,1.03
26270,-0.20,-0.05,1.03
26288,-0.17,-0.06,1.03
26307,-0.17,-0.06,1.05
26325,-0.17,-0.05,1.03
26344,-0.17,-0.06,1.06
26362,-0.20,-0.06,1.07
26381,-0.19,-0.06,1.10
26399,-0.20,-0.06,1.08
26418,-0.21,-0.05,1.06
26436,-0.25,-0.07,1.16
26455,-0.28,-0.08,1.22
26473,-0.25,-0.08,1.24
26492,-0.22,-0.08,1.24
26510,-0.20,-0.07,1.24
26529,-0.20,-0.09,1.34
26547,-0.18,-0.10,1.38
26566,-0.17,-0.10,1.42
26584,-0.15,-0.12,1.49
26603,-0.15,-0.13,1.51
26621,-0.15,-0.12,1.52
26640,-0.07,-0.11,1.46
26658,-0.04,-0.13,1.37
26677,-0.03,-0.13,1.32
26695,-0.04,-0.15,1.26
26714,-0.06,-0.15,1.21
26732,-0.11,-0.16,1.26
26751,-0.08,-0.18,1.42
26769,-0.06,-0.21,1.51
26788,0.03,-0.22,1.44
26806,0.15,-0.21,1.30
26825,0.19,-0.23,1.29
26843,0.13,-0.25,1.27
26862,0.12,-0.27,1.26
26880,0.14,-0.30,1.31
26899,0.11,-0.33,1.35
26917,0.09,-0.36,1.23
26936,0.11,-0.36,1.20
26954,0.08,-0.33,1.18
26973,0.12,-0.42,1.15
26991,0.12,-0.40,1.07
27010,-0.02,-0.39,1.13
27028,-0.01,-0.43,1.09
27047,-0.03,-0.45,1.11
27065,-0.07,-0.45,1.05
27084,-0.15,-0.44,1.00
27102,-0.09,-0.47,0.89
27121,-0.06,-0.46,0.74
27139,-0.00,-0.47,0.73
27158,-0.01,-0.52,0.73
27176,-0.02,-0.51,0.76
27195,-0.02,-0.52,0.69
27213,-0.02,-0.51,0.65
27232,-0.02,-0.52,0.60
27250,-0.04,-0.54,0.46
27269,-0.07,-0.52,0.45
27287,-0.15,-0.55,0.39
27306,-0.13,-0.57,0.42
27324,-0.12,-0.61,0.43
27343,-0.07,-0.60,0.37
27361,-0.00,-0.62,0.33
27380,-0.01,-0.62,0.24
27398,-0.05,-0.62,0.14
27417,-0.09,-0.64,0.07
27435,-0.15,-0.64,0.04
27454,-0.23,-0.67,0.13
27472,-0.17,-0.68,0.19
27491,-0.07,-0.69,0.14
27509,-0.07,-0.67,-0.02
27528,-0.09,-0.68,-0.04
27546,-0.14,-0.70,-0.06
27565,-0.21,-0.70,-0.04
27583,-0.22,-0.71,-0.07
27602,-0.22,-0.71,-0.10
27620,-0.15,-0.71,-0.17
27639,-0.10,-0.71,-0.12
27657,-0.10,-0.73,-0.17
27676,-0.15,-0.72,-0.20
27694,-0.17,-0.73,-0.25
27713,-0.13,-0.72,-0.34
27731,-0.14,-0.71,-0.34
27750,-0.14,-0.72,-0.29
27768,-0.18,-0.71,-0.28
27787,-0.16,-0.71,-0.34
27805,-0.14,-0.70,-0.43
27824,-0.19,-0.71,-0.46
27842,-0.19,-0.70,-0.49
27861,-0.20,-0.70,-0.51
27879,-0.19,-0.70,-0.47
27898,-0.15,-0.70,-0.49
27916,-0.11,-0.69,-0.49
27935,-0.12,-0.68,-0.54
27953,-0.14,-0.68,-0.60
27972,-0.15,-0.68,-0.60
27990,-0.19,-0.67,-0.64
28009,-0.19,-0.67,-0.66
28027,-0.15,-0.67,-0.71
28046,-0.13,-0.67,-0.67
28064,-0.11,-0.67,-0.64
28083,-0.09,-0.67,-0.66
28101,-0.10,-0.67,-0.61
28120,-0.09,-0.66,-0.70
28138,-0.09,-0.65,-0.74
28157,-0.09,-0.64,-0.79
28175,-0.14,-0.68,-0.78
28194,-0.14,-0.65,-0.74
28212,-0.13,-0.64,-0.73
28231,-0.14,-0.65,-0.71
28249,-0.13,-0.64,-0.72
28268,-0.14,-0.64,-0.73
28286,-0.15,-0.63,-0.81
28305,-0.15,-0.64,-0.81
28323,-0.16,-0.63,-0.82
28342,-0.16,-0.63,-0.79
28360,-0.14,-0.63,-0.79
28379,-0.11,-0.62,-0.80
28397,-0.10,-0.60,-0.82
28416,-0.16,-0.61,-0.81
28434,-0.13,-0.61,-0.86
28453,-0.13,-0.60,-0.88
28471,-0.14,-0.60,-0.86
28490,-0.10,-0.59,-0.91
28508,-0.13,-0.59,-0.89
28527,-0.14,-0.61,-0.89
28545,-0.15,-0.60,-0.88
28564,-0.19,-0.61,-0.80
28582,-0.18,-0.61,-0.83
28601,-0.18,-0.62,-0.83
28619,-0.18,-0.62,-0.82
28638,-0.17,-0.62,-0.82
28656,-0.17,-0.63,-0.81
28675,-0.17,-0.63,-0.82
28693,-0.16,-0.63,-0.83
28712,-0.13,-0.62,-0.81
28730,-0.12,-0.61,-0.83
28749,-0.14,-0.61,-0.83
28767,-0.16,-0.61,-0.81
28786,-0.17,-0.61,-0.82
28804,-0.16,-0.61,-0.81
28823,-0.14,-0.61,-0.79
28841,-0.13,-0.61,-0.78
28860,-0.12,-0.61,-0.81
28878,-0.12,-0.61,-0.83
28897,-0.14,-0.60,-0.83
28915,-0.13,-0.60,-0.85
28934,-0.13,-0.59,-0.84
28952,-0.15,-0.58,-0.84
28971,-0.13,-0.58,-0.84
28989,-0.13,-0.57,-0.88
29008,-0.12,-0.56,-0.94
29026,-0.09,-0.55,-0.98
29045,-0.05,-0.53,-0.98
29063,-0.03,-0.53,-0.99
29082,0.03,-0.52,-1.04
29100,0.07,-0.50,-1.05
29119,-0.06,-0.48,-1.01
29137,-0.20,-0.48,-0.93
29156,-0.31,-0.48,-0.89
29174,-0.31,-0.49,-0.95
29193,-0.20,-0.49,-1.00
29211,-0.12,-0.50,-0.92
29230,-0.11,-0.51,-0.86
29248,-0.12,-0.53,-0.85
29267,-0.16,-0.54,-0.85
29285,-0.19,-0.55,-0.87
29304,-0.19,-0.57,-0.84
29322,-0.21,-0.55,-0.80
29341,-0.26,-0.55,-0.76
29359,-0.27,-0.54,-0.77
29378,-0.24,-0.54,-0.77
29396,-0.21,-0.53,-0.75
29415,-0.23,-0.53,-0.65
29433,-0.23,-0.53,-0.61
29452,-0.27,-0.53,-0.56
29470,-0.26,-0.53,-0.54
29489,-0.19,-0.53,-0.54
29507,-0.14,-0.52,-0.55
29526,-0.14,-0.51,-0.46
29544,-0.18,-0.51,-0.39
29563,-0.14,-0.49,-0.38
29581,-0.21,-0.48,-0.34
29600,-0.26,-0.48,-0.23
29618,-0.32,-0.48,-0.23
29637,-0.36,-0.48,-0.19
29655,-0.34,-0.47,-0.18
29674,-0.25,-0.47,-0.17
29692,-0.19,-0.44,-0.16
29711,-0.09,-0.43,-0.12
29729,-0.05,-0.41,-0.03
29748,-0.09,-0.41,0.15
29766,-0.15,-0.40,0.32
29785,-0.27,-0.42,0.58
29803,-0.45,-0.46,0.83
29822,-0.42,-0.50,0.85
29840,-0.31,-0.51,0.75
29859,-0.17,-0.51,0.64
29877,-0.12,-0.49,0.53
29896,-0.06,-0.48,0.64
29914,0.01,-0.43,0.59
29933,0.05,-0.40,0.62
29951,-0.20,-0.31,0.80
29970,-0.67,-0.45,1.24
29988,-0.82,-0.38,1.46
30007,-0.64,-0.49,1.40
30025,-0.30,-0.47,1.34
30044,-0.04,-0.51,1.31
30062,-0.02,-0.50,1.28
30081,-0.12,-0.49,1.20
30099,-0.18,-0.49,1.22
30118,-0.16,-0.50,1.18
30136,-0.10,-0.61,1.10
30155,-0.23,-0.46,1.19
30173,-0.51,-0.48,1.26
30192,-0.41,-0.49,1.24
30210,-0.35,-0.55,1.07
30229,-0.16,-0.44,0.99
30247,-0.16,-0.42,0.98
30266,-0.14,-0.42,1.08
30284,-0.11,-0.41,1.12
30303,-0.06,-0.41,1.15
30321,0.02,-0.40,1.11
30340,0.06,-0.38,1.05
30358,0.10,-0.34,0.96
30377,0.06,-0.32,0.94
30395,-0.18,-0.32,1.06
30414,-0.45,-0.32,1.18
30432,-0.47,-0.31,1.13
30451,-0.35,-0.27,1.02
30469,-0.22,-0.23,0.89
30488,-0.17,-0.21,0.92
30506,-0.15,-0.21,1.11
30525,-0.12,-0.21,1.18
30543,-0.07,-0.18,1.13
30562,-0.03,-0.16,1.01
30580,0.01,-0.13,1.00
30599,0.00,-0.12,1.00
30617,-0.13,-0.12,1.11
30636,-0.20,-0.12,1.21
30654,-0.21,-0.11,1.18
30673,-0.22,-0.04,1.15
30691,-0.23,-0.06,1.17
30710,-0.20,-0.08,1.17
30728,-0.19,-0.09,1.33
30747,-0.20,-0.11,1.38
30765,-0.21,-0.10,1.32
30784,-0.21,-0.09,1.29
30802,-0.27,-0.05,1.22
30821,-0.33,-0.07,1.29
30839,-0.41,-0.07,1.33
30858,-0.40,-0.05,1.29
30876,-0.37,-0.04,1.21
30895,-0.31,0.08,1.17
30913,-0.25,-0.01,1.20
30932,-0.19,-0.03,1.29
30950,-0.10,-0.03,1.21
30969,-0.08,-0.02,1.21
30987,-0.11,-0.02,1.16
31006,-0.12,-0.02,1.17
31024,-0.13,-0.02,1.12
31043,-0.13,-0.03,1.08
31061,-0.13,-0.03,1.03
31080,-0.15,-0.02,1.00
31098,-0.17,-0.02,0.98
31117,-0.17,-0.02,0.92
31135,-0.17,-0.02,0.93
31154,-0.17,-0.02,0.96
31172,-0.18,-0.02,0.98
31191,-0.17,-0.02,0.97
31209,-0.19,-0.01,0.99
31228,-0.21,-0.00,0.97
31246,-0.17,-0.00,1.00
31265,-0.18,0.00,1.00
31283,-0.16,0.00,1.04
31302,-0.16,0.00,1.06
31320,-0.17,0.01,1.05
31339,-0.18,0.01,1.04
31357,-0.18,0.00,1.04
31376,-0.19,0.00,1.06
31394,-0.18,0.00,1.06
31413,-0.18,0.00,1.05
31431,-0.20,-0.00,1.04
31450,-0.20,-0.01,1.03
31468,-0.21,-0.01,1.04
31487,-0.20,-0.02,1.05
31505,-0.21,-0.02,1.07
31524,-0.22,-0.02,1.07
31542,-0.23,-0.02,1.10
31561,-0.23,-0.02,1.10
31579,-0.19,-0.02,1.11
31598,-0.16,-0.02,1.14
31616,-0.15,-0.02,1.20
31635,-0.17,-0.03,1.25
31653,-0.18,-0.03,1.30
31672,-0.17,-0.04,1.33
31690,-0.20,-0.05,1.39
31709,-0.19,-0.06,1.42
31727,-0.18,-0.06,1.42
31746,-0.16,-0.06,1.44
31764,-0.12,-0.07,1.47
31783,-0.09,-0.08,1.48
31801,-0.05,-0.09,1.43
31820,-0.03,-0.10,1.37
31838,-0.03,-0.12,1.30
31857,-0.04,-0.13,1.23
31875,-0.07,-0.15,1.20
31894,-0.09,-0.17,1.18
31912,-0.08,-0.20,1.25
31931,-0.09,-0.21,1.19
31949,-0.08,-0.23,1.23
31968,-0.09,-0.24,1.11
31986,-0.13,-0.25,1.11
32005,-0.12,-0.27,1.08
32023,-0.10,-0.27,1.04
32042,-0.04,-0.30,1.11
32060,-0.01,-0.32,1.11
32079,-0.01,-0.33,1.14
32097,-0.02,-0.35,1.13
32116,-0.00,-0.35,1.10
32134,-0.03,-0.36,1.12
32153,-0.11,-0.38,1.15
32171,-0.13,-0.41,1.19
32190,-0.14,-0.38,1.11
32208,-0.14,-0.40,1.07
32227,0.01,-0.46,0.98
32245,-0.08,-0.41,0.93
32264,-0.10,-0.46,0.90
32282,-0.11,-0.46,0.99
32301,-0.07,-0.49,0.95
32319,-0.09,-0.49,0.94
32338,-0.15,-0.50,0.94
32356,-0.14,-0.51,0.75
32375,-0.12,-0.52,0.75
32393,-0.12,-0.54,0.70
32412,-0.11,-0.57,0.69
32430,-0.14,-0.59,0.74
32449,-0.14,-0.59,0.65
32467,-0.13,-0.60,0.58
32486,-0.11,-0.61,0.54
32504,-0.16,-0.62,0.56
32523,-0.22,-0.62,0.54
32541,-0.26,-0.63,0.51
32560,-0.28,-0.65,0.48
32578,-0.27,-0.64,0.39
32597,-0.28,-0.65,0.36
32615,-0.24,-0.67,0.35
32634,-0.20,-0.68,0.34
32652,-0.21,-0.68,0.28
32671,-0.22,-0.69,0.27
32689,-0.18,-0.68,0.17
32708,-0.13,-0.69,0.11
32726,-0.10,-0.70,0.07
32745,-0.14,-0.70,0.05
32763,-0.16,-0.71,0.05
32782,-0.21,-0.72,0.07
32800,-0.20,-0.73,0.05
32819,-0.14,-0.72,-0.06
32837,-0.12,-0.72,-0.16
32856,-0.13,-0.71,-0.19
32874,-0.17,-0.72,-0.17
32893,-0.17,-0.73,-0.17
32911,-0.14,-0.73,-0.22
32930,-0.11,-0.72,-0.26
32948,-0.07,-0.72,-0.31
32967,-0.06,-0.72,-0.35
32985,-0.10,-0.72,-0.36
33004,-0.13,-0.72,-0.38
33022,-0.13,-0.71,-0.41
33041,-0.18,-0.71,-0.45
33059,-0.20,-0.71,-0.44
33078,-0.18,-0.72,-0.46
33096,-0.21,-0.73,-0.38
33115,-0.17,-0.73,-0.40
33133,-0.11,-0.72,-0.44
33152,-0.07,-0.72,-0.53
33170,-0.06,-0.71,-0.57
33189,-0.09,-0.71,-0.59
33207,-0.09,-0.71,-0.61
33226,-0.15,-0.70,-0.62
33244,-0.18,-0.70,-0.63
33263,-0.14,-0.68,-0.63
33281,-0.14,-0.69,-0.62
33300,-0.14,-0.69,-0.61
33318,-0.10,-0.68,-0.65
33337,-0.10,-0.69,-0.62
33355,-0.06,-0.68,-0.65
33374,-0.05,-0.66,-0.73
33392,-0.07,-0.66,-0.73
33411,-0.07,-0.65,-0.74
33429,-0.05,-0.65,-0.74
33448,-0.07,-0.66,-0.75
33466,-0.06,-0.65,-0.73
33485,-0.05,-0.64,-0.78
33503,-0.12,-0.64,-0.76
33522,-0.12,-0.63,-0.78
33540,-0.10,-0.63,-0.80
33559,-0.08,-0.63,-0.79
33577,-0.05,-0.63,-0.76
33596,-0.04,-0.62,-0.75
33614,-0.07,-0.61,-0.79
33633,-0.09,-0.62,-0.83
33651,-0.13,-0.62,-0.84
33670,-0.12,-0.62,-0.86
33688,-0.13,-0.61,-0.93
33707,-0.09,-0.61,-0.89
33725,-0.08,-0.61,-0.86
33744,-0.10,-0.62,-0.82
33762,-0.10,-0.61,-0.82
33781,-0.09,-0.61,-0.84
33799,-0.11,-0.61,-0.86
33818,-0.14,-0.61,-0.85
33836,-0.15,-0.61,-0.87
33855,-0.13,-0.62,-0.89
33873,-0.14,-0.62,-0.86
33892,-0.14,-0.63,-0.83
33910,-0.11,-0.63,-0.83
33929,-0.12,-0.63,-0.85
33947,-0.14,-0.63,-0.81
33966,-0.15,-0.63,-0.79
33984,-0.14,-0.64,-0.78
34003,-0.13,-0.64,-0.76
34021,-0.14,-0.64,-0.73
34040,-0.14,-0.64,-0.74
34058,-0.12,-0.64,-0.73
34077,-0.11,-0.64,-0.73
34095,-0.14,-0.65,-0.68
34114,-0.14,-0.65,-0.68
34132,-0.09,-0.66,-0.72
34151,-0.11,-0.66,-0.72
34169,-0.16,-0.67,-0.66
34188,-0.16,-0.67,-0.67
34206,-0.13,-0.67,-0.71
34225,-0.13,-0.66,-0.68
34243,-0.13,-0.66,-0.69
34262,-0.09,-0.65,-0.72
34280,-0.10,-0.65,-0.73
34299,-0.12,-0.64,-0.74
34317,-0.11,-0.63,-0.78
34336,-0.12,-0.63,-0.80
34354,-0.13,-0.61,-0.83
34373,-0.11,-0.60,-0.87
34391,-0.10,-0.59,-0.88
34410,-0.09,-0.58,-0.91
34428,-0.09,-0.58,-0.92
34447,-0.10,-0.57,-0.93
34465,-0.11,-0.56,-0.92
34484,-0.14,-0.55,-0.94
34502,-0.14,-0.55,-0.96
34521,-0.12,-0.55,-0.97
34539,-0.10,-0.54,-0.99
34558,-0.08,-0.54,-1.00
34576,-0.08,-0.53,-1.01
34595,-0.08,-0.53,-1.04
34613,-0.07,-0.53,-1.12
34632,-0.05,-0.52,-1.22
34650,-0.10,-0.50,-1.23
34669,-0.13,-0.50,-1.16
34687,-0.08,-0.50,-1.04
34706,-0.05,-0.51,-0.91
34724,-0.08,-0.53,-0.80
34743,-0.08,-0.55,-0.71
34761,-0.08,-0.56,-0.67
34780,-0.11,-0.57,-0.72
34798,-0.13,-0.57,-0.78
34817,-0.19,-0.58,-0.75
34835,-0.29,-0.59,-0.70
34854,-0.33,-0.59,-0.62
34872,-0.33,-0.59,-0.62
34891,-0.31,-0.59,-0.60
34909,-0.24,-0.58,-0.56
34928,-0.17,-0.58,-0.54
34946,-0.11,-0.56,-0.53
34965,-0.04,-0.55,-0.50
34983,-0.02,-0.54,-0.46
35002,-0.11,-0.53,-0.35
35020,-0.33,-0.55,-0.16
35039,-0.48,-0.56,-0.07
35057,-0.42,-0.56,-0.14
35076,-0.35,-0.55,-0.17
35094,-0.26,-0.53,-0.23
35113,-0.17,-0.53,-0.19
35131,-0.09,-0.53,-0.14
35150,0.01,-0.52,-0.14
35168,0.20,-0.52,-0.14
35187,0.18,-0.48,-0.08
35205,0.09,-0.48,0.14
35224,-0.16,-0.47,0.32
35242,-0.37,-0.51,0.54
35261,-0.37,-0.51,0.46
35279,-0.30,-0.50,0.33
35298,-0.22,-0.49,0.32
35316,-0.13,-0.51,0.38
35335,-0.04,-0.51,0.44
35353,0.08,-0.49,0.47
35372,0.20,-0.44,0.52
35390,0.25,-0.40,0.64
35409,-0.15,-0.43,1.00
35427,-0.45,-0.47,1.16
35446,-0.48,-0.47,0.95
35464,-0.55,-0.37,0.80
35483,-0.53,-0.37,0.67
35501,-0.43,-0.38,0.79
35520,-0.26,-0.34,0.90
35538,-0.10,-0.31,1.07
35557,0.09,-0.30,1.11
35575,0.27,-0.31,1.19
35594,0.32,-0.33,1.22
35612,-0.03,-0.28,1.37
35631,-0.27,-0.38,1.56
35649,-0.33,-0.37,1.49
35668,-0.28,-0.37,1.37
35686,-0.14,-0.40,1.26
35705,0.00,-0.32,1.15
35723,0.04,-0.29,1.17
35742,0.04,-0.25,1.23
35760,0.11,-0.30,1.23
35779,-0.93,-1.49,1.80
35797,-3.11,0.41,4.00
35816,1.02,-0.22,0.87
35834,1.51,-0.15,-1.83
35853,0.61,-0.24,1.07
35871,0.45,-0.37,1.59
35890,0.36,-0.26,1.18
35908,0.87,-0.28,0.55
35927,0.25,-0.16,0.56
35945,0.17,-0.20,0.80
35964,0.47,-0.21,0.98
35982,0.45,-0.18,1.04
36001,0.27,-0.20,1.11
36019,0.14,-0.21,1.11
36038,-0.09,-0.23,1.05
36056,-0.30,-0.24,1.08
36075,-0.30,-0.26,1.07
36093,-0.48,-0.22,1.16
36112,-0.05,-0.20,1.12
36130,0.29,-0.16,0.93
36149,0.50,-0.16,0.80
36167,0.49,-0.16,0.69
36186,-0.05,-0.15,0.80
36204,-0.07,-0.15,0.88
36223,0.10,-0.14,0.88
36241,-0.01,-0.13,0.93
36260,-0.02,-0.12,1.02
36278,-0.03,-0.09,0.97
36297,-0.03,-0.08,1.03
36315,-0.05,-0.08,1.14
36334,-0.01,-0.08,1.18
36352,0.05,-0.07,1.19
36371,0.06,-0.09,1.15
36389,0.11,-0.04,1.28
36408,0.07,-0.01,1.17
36426,0.02,-0.00,1.24
36445,-0.05,0.01,1.25
36463,-0.14,0.01,1.27
36482,-0.09,0.01,1.27
36500,-0.06,0.01,1.25
36519,-0.01,0.01,1.25
36537,0.07,-0.01,1.28
36556,0.08,0.02,1.18
36574,0.12,0.01,1.15
36593,0.13,-0.00,1.13
36611,0.09,-0.01,1.17
36630,0.03,-0.00,1.16
36648,0.01,-0.02,1.14
36667,0.04,-0.04,1.18
36685,0.04,-0.00,1.09
36704,0.04,-0.04,1.12
36722,0.01,0.01,1.21
36741,0.04,-0.03,1.12
36759,0.05,-0.05,1.09
36778,0.07,-0.03,1.07
36796,0.03,-0.03,1.07
36815,0.06,-0.03,1.11
36833,0.10,-0.03,1.15
36852,0.09,-0.03,1.22
36870,0.06,-0.03,1.24
36889,0.08,-0.02,1.24
36907,0.07,-0.02,1.25
36926,0.06,-0.02,1.32
36944,0.07,-0.01,1.32
36963,0.11,-0.01,1.32
36981,0.13,-0.00,1.29
37000,0.16,-0.01,1.34
37018,0.16,-0.02,1.36
37037,0.15,-0.04,1.32
37055,0.13,-0.05,1.30
37074,0.10,-0.07,1.29
37092,0.08,-0.08,1.26
37111,0.06,-0.08,1.27
37129,0.05,-0.09,1.31
37148,0.08,-0.10,1.37
37166,0.07,-0.12,1.48
37185,0.08,-0.11,1.38
37203,0.14,-0.10,1.35
37222,0.22,-0.10,1.28
37240,0.23,-0.11,1.15
37259,0.20,-0.13,1.18
37277,0.18,-0.17,1.21
37296,0.14,-0.19,1.14
37314,0.10,-0.22,1.22
37333,0.05,-0.23,1.18
37351,0.04,-0.23,1.20
37370,0.08,-0.20,1.11
37388,0.14,-0.30,1.21
37407,0.21,-0.29,1.12
37425,0.22,-0.33,1.13
37444,0.16,-0.31,1.13
37462,0.17,-0.40,1.20
37481,0.10,-0.40,1.16
37499,0.02,-0.40,1.09
37518,-0.02,-0.43,1.04
37536,0.01,-0.44,0.90
37555,0.07,-0.45,0.85
37573,0.08,-0.46,0.73
37592,0.12,-0.49,0.69
37610,0.09,-0.52,0.76
37629,0.05,-0.54,0.75
37647,-0.01,-0.55,0.74
37666,-0.03,-0.55,0.77
37684,-0.05,-0.57,0.73
37703,0.02,-0.56,0.65
37721,0.01,-0.56,0.58
37740,-0.07,-0.57,0.59
37758,-0.09,-0.59,0.58
37777,-0.09,-0.61,0.45
37795,-0.09,-0.62,0.35
37814,-0.07,-0.63,0.28
37832,-0.05,-0.65,0.30
37851,-0.09,-0.66,0.38
37869,-0.08,-0.68,0.39
37888,-0.01,-0.69,0.38
37906,0.00,-0.68,0.31
37925,0.01,-0.69,0.21
37943,0.01,-0.69,0.16
37962,-0.03,-0.70,0.12
37980,-0.05,-0.70,0.10
37999,-0.04,-0.70,0.03
38017,-0.02,-0.70,-0.05
38036,-0.04,-0.72,-0.03
38054,-0.06,-0.74,-0.02
38073,-0.05,-0.74,-0.07
38091,-0.09,-0.74,-0.12
38110,-0.07,-0.75,-0.10
38128,-0.04,-0.76,-0.05
38147,-0.07,-0.75,-0.09
38165,-0.11,-0.76,-0.03
38184,-0.07,-0.75,-0.12
38202,-0.05,-0.74,-0.23
38221,-0.06,-0.73,-0.22
38239,-0.04,-0.72,-0.29
38258,-0.09,-0.72,-0.33
38276,-0.10,-0.71,-0.34
38295,-0.12,-0.71,-0.37
38313,-0.10,-0.71,-0.38
38332,-0.07,-0.70,-0.44
38350,-0.08,-0.69,-0.44
38369,-0.09,-0.68,-0.44
38387,-0.12,-0.68,-0.48
38406,-0.11,-0.67,-0.50
38424,-0.10,-0.66,-0.58
38443,-0.10,-0.65,-0.67
38461,-0.08,-0.65,-0.70
38480,-0.09,-0.64,-0.67
38498,-0.11,-0.65,-0.67
38517,-0.07,-0.64,-0.66
38535,-0.05,-0.64,-0.65
38554,-0.14,-0.63,-0.58
38572,-0.12,-0.63,-0.66
38591,-0.09,-0.62,-0.69
38609,-0.08,-0.60,-0.77
38628,-0.10,-0.61,-0.77
38646,-0.06,-0.60,-0.77
38665,-0.04,-0.59,-0.81
38683,-0.05,-0.59,-0.80
38702,-0.02,-0.57,-0.81
38720,-0.05,-0.56,-0.81
38739,-0.07,-0.55,-0.84
38757,-0.07,-0.54,-0.89
38776,-0.11,-0.54,-0.92
38794,-0.09,-0.54,-0.93
38813,-0.10,-0.55,-0.91
38831,-0.08,-0.55,-0.89
38850,-0.07,-0.56,-0.89
38868,-0.07,-0.56,-0.82
38887,-0.04,-0.56,-0.81
38905,-0.03,-0.57,-0.82
38924,-0.03,-0.55,-0.86
38942,-0.06,-0.56,-0.83
38961,-0.06,-0.56,-0.91
38979,-0.12,-0.55,-0.91
38998,-0.14,-0.53,-0.96
39016,-0.17,-0.54,-0.98
39035,-0.18,-0.53,-0.93
39053,-0.17,-0.53,-0.92
39072,-0.14,-0.52,-0.95
39090,-0.08,-0.49,-1.00
39109,-0.08,-0.49,-1.00
39127,-0.06,-0.47,-1.02
39146,-0.06,-0.45,-1.03
39164,-0.06,-0.45,-1.10
39183,-0.04,-0.45,-1.12
39201,-0.05,-0.45,-1.11
39220,-0.06,-0.46,-1.07
39238,-0.08,-0.47,-1.00
39257,-0.07,-0.48,-0.99
39275,-0.03,-0.49,-0.96
39294,-0.02,-0.50,-0.94
39312,-0.05,-0.52,-0.91
39331,-0.04,-0.53,-0.85
39349,-0.02,-0.54,-0.86
39368,-0.01,-0.55,-0.85
39386,-0.00,-0.55,-0.84
39405,-0.05,-0.55,-0.84
39423,-0.07,-0.56,-0.82
39442,-0.08,-0.55,-0.83
39460,-0.09,-0.55,-0.89
39479,-0.08,-0.54,-0.98
39497,-0.10,-0.52,-1.03
39516,-0.11,-0.52,-1.01
39534,-0.11,-0.50,-1.01
39553,-0.07,-0.50,-0.97
39571,-0.04,-0.50,-0.99
39590,-0.06,-0.50,-0.99
39608,-0.10,-0.51,-0.93
39627,-0.15,-0.52,-0.90
39645,-0.18,-0.53,-0.89
39664,-0.18,-0.54,-0.88
39682,-0.16,-0.55,-0.91
39701,-0.12,-0.56,-0.86
39719,-0.10,-0.57,-0.81
39738,-0.06,-0.58,-0.80
39756,-0.04,-0.59,-0.78
39775,-0.04,-0.59,-0.76
39793,-0.05,-0.60,-0.71
39812,-0.07,-0.59,-0.73
39830,-0.10,-0.60,-0.68
39849,-0.19,-0.61,-0.59
39867,-0.25,-0.63,-0.53
39886,-0.24,-0.63,-0.54
39904,-0.29,-0.65,-0.44
39923,-0.32,-0.66,-0.38
39941,-0.24,-0.67,-0.36
39960,-0.14,-0.69,-0.34
39978,-0.05,-0.70,-0.31
39997,0.02,-0.70,-0.31
40015,0.07,-0.72,-0.33
40034,0.12,-0.70,-0.34
40052,0.07,-0.69,-0.34
40071,-0.19,-0.69,-0.13
40089,-0.32,-0.72,0.02
40108,-0.36,-0.73,0.08
40126,-0.28,-0.75,0.09
40145,-0.18,-0.75,0.03
40163,-0.08,-0.75,-0.00
40182,0.02,-0.75,0.02
40200,0.09,-0.74,0.02
40219,0.18,-0.73,0.03
40237,0.21,-0.70,0.02
40256,0.07,-0.69,0.11
40274,-0.22,-0.71,0.30
40293,-0.43,-0.74,0.43
40311,-0.47,-0.74,0.38
40330,-0.38,-0.71,0.19
40348,-0.27,-0.69,0.15
40367,-0.16,-0.68,0.18
40385,-0.07,-0.68,0.28
40404,0.03,-0.68,0.33
40422,0.14,-0.67,0.39
40441,0.19,-0.66,0.50
40459,0.11,-0.64,0.55
40478,-0.11,-0.61,0.73
40496,-0.22,-0.66,0.81
40515,-0.20,-0.68,0.78
40533,-0.18,-0.68,0.74
40552,-0.13,-0.67,0.67
40570,-0.10,-0.66,0.64
40589,-0.15,-0.66,0.63
40607,-0.12,-0.65,0.70
40626,-0.04,-0.64,0.75
40644,0.04,-0.63,0.80
40663,0.12,-0.62,0.79
40681,0.04,-0.54,0.81
40700,-0.22,-0.58,0.83
40718,-0.44,-0.61,0.93
40737,-0.43,-0.60,0.88
40755,-0.34,-0.58,0.85
40774,-0.21,-0.56,0.84
40792,-0.11,-0.55,0.86
40811,-0.09,-0.54,0.87
40829,-0.09,-0.52,0.91
40848,-0.08,-0.51,0.97
40866,-0.09,-0.52,0.98
40885,-0.11,-0.61,0.85
40903,-0.04,-0.44,0.95
40922,-0.17,-0.43,0.90
40940,-0.31,-0.43,1.11
40959,-0.48,-0.42,1.11
40977,-0.56,-0.41,1.13
40996,-0.49,-0.38,1.07
41014,-0.37,-0.35,0.95
41033,-0.29,-0.33,0.95
41051,-0.23,-0.32,1.01
41070,-0.22,-0.32,1.10
41088,-0.23,-0.24,1.14
41107,-0.21,-0.27,1.07
41125,-0.18,-0.27,0.98
41144,-0.20,-0.27,1.00
41162,-0.22,-0.26,1.01
41181,-0.24,-0.25,1.05
41199,-0.22,-0.25,1.06
41218,-0.18,-0.23,1.00
41236,-0.15,-0.22,1.03
41255,-0.13,-0.21,1.03
41273,-0.16,-0.21,1.06
41292,-0.16,-0.20,1.07
41310,-0.18,-0.20,1.02
41329,-0.24,-0.19,1.04
41347,-0.32,-0.19,1.09
41366,-0.36,-0.20,1.10
41384,-0.32,-0.17,1.13
41403,-0.27,-0.15,1.11
41421,-0.23,-0.13,1.13
41440,-0.23,-0.13,1.21
41458,-0.24,-0.12,1.26
41477,-0.26,-0.11,1.31
41495,-0.23,-0.08,1.28
41514,-0.21,-0.08,1.36
41532,-0.24,-0.02,1.28
41551,-0.21,-0.12,1.25
41569,-0.24,-0.09,1.52
41588,-0.27,-0.09,1.41
41606,-0.27,-0.07,1.44
41625,-0.32,-0.08,1.38
41643,-0.37,-0.08,1.36
41662,-0.35,-0.10,1.34
41680,-0.31,-0.10,1.28
41699,-0.25,-0.10,1.21
41717,-0.22,-0.08,1.15
41736,-0.20,-0.08,1.08
41754,-0.18,-0.08,1.07
41773,-0.19,-0.08,1.06
41791,-0.23,-0.08,1.10
41810,-0.24,-0.08,1.14
41828,-0.24,-0.09,1.18
41847,-0.20,-0.09,1.20
41865,-0.18,-0.09,1.21
41884,-0.18,-0.09,1.17
41902,-0.17,-0.08,1.17
41921,-0.17,-0.08,1.22
41939,-0.22,-0.09,1.29
41958,-0.25,-0.10,1.38
41976,-0.24,-0.12,1.41
41995,-0.16,-0.13,1.42
42013,-0.10,-0.14,1.43
42032,-0.07,-0.16,1.42
42050,-0.03,-0.16,1.38
42069,-0.02,-0.17,1.33
42087,-0.04,-0.17,1.26
42106,-0.07,-0.17,1.23
42124,-0.17,-0.19,1.22
42143,-0.18,-0.19,1.23
42161,-0.16,-0.21,1.25
42180,-0.09,-0.22,1.25
42198,-0.04,-0.24,1.26
42217,-0.03,-0.25,1.23
42235,-0.02,-0.26,1.16
42254,-0.03,-0.28,1.15
42272,-0.04,-0.29,1.10
42291,-0.00,-0.30,1.08
42309,0.04,-0.33,1.13
42328,0.05,-0.35,1.12
42346,0.04,-0.32,1.08
42365,-0.08,-0.39,1.12
42383,-0.06,-0.39,1.03
42402,-0.13,-0.42,1.05
42420,-0.11,-0.39,0.98
42439,-0.07,-0.45,0.98
42457,-0.15,-0.46,0.97
42476,-0.15,-0.46,0.91
42494,-0.16,-0.49,0.86
42513,-0.15,-0.50,0.84
42531,-0.11,-0.52,0.78
42550,-0.10,-0.53,0.71
42568,-0.17,-0.55,0.73
42587,-0.23,-0.57,0.75
42605,-0.26,-0.60,0.74
42624,-0.27,-0.60,0.67
42642,-0.16,-0.61,0.62
42661,-0.15,-0.61,0.58
42679,-0.16,-0.62,0.57
42698,-0.09,-0.64,0.57
42716,-0.02,-0.65,0.55
42735,-0.05,-0.67,0.47
42753,-0.05,-0.68,0.46
42772,-0.09,-0.70,0.43
42790,-0.16,-0.71,0.44
42809,-0.18,-0.73,0.40
42827,-0.14,-0.72,0.28
42846,-0.09,-0.72,0.22
42864,-0.06,-0.73,0.26
42883,-0.04,-0.75,0.28
42901,-0.04,-0.75,0.25
42920,-0.03,-0.75,0.20
42938,-0.04,-0.75,0.14
42957,-0.04,-0.74,0.06
42975,-0.04,-0.74,0.04
42994,-0.11,-0.76,0.05
43012,-0.08,-0.74,0.03
43031,-0.09,-0.75,-0.01
43049,-0.07,-0.74,-0.05
43068,-0.03,-0.74,-0.13
43086,-0.03,-0.74,-0.12
43105,-0.06,-0.74,-0.11
43123,-0.11,-0.73,-0.17
43142,-0.11,-0.74,-0.16
43160,-0.08,-0.73,-0.20
43179,-0.06,-0.72,-0.27
43197,-0.07,-0.71,-0.35
43216,-0.13,-0.71,-0.41
43234,-0.18,-0.71,-0.39
43253,-0.19,-0.72,-0.39
43271,-0.17,-0.71,-0.44
43290,-0.13,-0.72,-0.50
43308,-0.12,-0.70,-0.52
43327,-0.10,-0.70,-0.51
43345,-0.10,-0.71,-0.51
43364,-0.13,-0.70,-0.52
43382,-0.09,-0.71,-0.48
43401,-0.05,-0.70,-0.49
43419,-0.01,-0.70,-0.54
43438,-0.03,-0.69,-0.60
43456,-0.10,-0.69,-0.54
43475,-0.13,-0.69,-0.56
43493,-0.14,-0.67,-0.63
43512,-0.16,-0.68,-0.59
43530,-0.16,-0.68,-0.65
43549,-0.18,-0.67,-0.67
43567,-0.17,-0.67,-0.67
43586,-0.09,-0.67,-0.72
43604,-0.05,-0.65,-0.80
43623,-0.06,-0.65,-0.81
43641,-0.08,-0.65,-0.76
43660,-0.09,-0.63,-0.78
43678,-0.10,-0.62,-0.74
43697,-0.10,-0.60,-0.83
43715,-0.13,-0.59,-0.87
43734,-0.13,-0.58,-0.91
43752,-0.11,-0.58,-0.92
43771,-0.10,-0.57,-0.93
43789,-0.12,-0.59,-0.93
43808,-0.12,-0.59,-0.87
43826,-0.11,-0.60,-0.85
43845,-0.09,-0.60,-0.87
43863,-0.08,-0.60,-0.87
43882,-0.05,-0.60,-0.89
43900,-0.05,-0.60,-0.91
43919,-0.08,-0.61,-0.85
43937,-0.13,-0.62,-0.83
43956,-0.14,-0.63,-0.89
43974,-0.15,-0.64,-0.92
43993,-0.16,-0.64,-0.92
44011,-0.15,-0.65,-0.90
44030,-0.15,-0.65,-0.85
44048,-0.15,-0.66,-0.81
44067,-0.15,-0.66,-0.78
44085,-0.15,-0.67,-0.73
44104,-0.15,-0.68,-0.69
44122,-0.13,-0.68,-0.66
44141,-0.11,-0.67,-0.72
44159,-0.09,-0.68,-0.72
44178,-0.11,-0.68,-0.68
44196,-0.12,-0.68,-0.72
44215,-0.09,-0.68,-0.71
44233,-0.10,-0.67,-0.74
44252,-0.08,-0.67,-0.73
44270,-0.05,-0.68,-0.74
44289,-0.05,-0.68,-0.70
44307,-0.06,-0.68,-0.65
44326,-0.04,-0.68,-0.65
44344,-0.03,-0.67,-0.69
44363,-0.03,-0.66,-0.71
44381,-0.06,-0.65,-0.76
44400,-0.06,-0.64,-0.80
44418,-0.08,-0.63,-0.83
44437,-0.10,-0.61,-0.87
44455,-0.08,-0.60,-0.91
44474,-0.07,-0.58,-0.95
44492,-0.07,-0.56,-1.01
44511,-0.09,-0.53,-1.11
44529,-0.13,-0.53,-1.10
44548,-0.15,-0.52,-1.09
44566,-0.18,-0.51,-1.11
44585,-0.17,-0.50,-1.11
44603,-0.17,-0.50,-1.07
44622,-0.16,-0.50,-1.08
44640,-0.13,-0.50,-1.03
44659,-0.12,-0.51,-0.99
44677,-0.12,-0.51,-0.97
44696,-0.16,-0.52,-0.90
44714,-0.20,-0.53,-0.87
44733,-0.19,-0.54,-0.86
44751,-0.17,-0.54,-0.88
44770,-0.14,-0.54,-0.86
44788,-0.09,-0.53,-0.84
44807,-0.01,-0.54,-0.76
44825,0.01,-0.52,-0.71
44844,0.07,-0.54,-0.62
44862,0.05,-0.53,-0.55
44881,-0.00,-0.55,-0.46
44899,-0.30,-0.59,-0.21
44918,-0.52,-0.65,-0.08
44936,-0.54,-0.66,-0.10
44955,-0.46,-0.65,-0.27
44973,-0.29,-0.64,-0.36
44992,-0.13,-0.64,-0.38
45010,-0.06,-0.65,-0.33
45029,-0.01,-0.65,-0.26
45047,0.02,-0.66,-0.19
45066,-0.01,-0.68,-0.11
45084,-0.06,-0.67,0.13
45103,-0.08,-0.71,0.28
45121,-0.14,-0.72,0.45
45140,-0.18,-0.76,0.47
45158,-0.16,-0.76,0.44
45177,-0.04,-0.76,0.35
45195,0.04,-0.77,0.29
45214,0.07,-0.77,0.30
45232,0.13,-0.78,0.38
45251,0.17,-0.78,0.38
45269,0.20,-0.75,0.35
45288,0.06,-0.73,0.38
45306,-0.20,-0.73,0.49
45325,-0.29,-0.72,0.55
45343,-0.25,-0.71,0.57
45362,-0.19,-0.72,0.56
45380,-0.11,-0.71,0.59
45399,-0.06,-0.72,0.57
45417,-0.03,-0.68,0.55
45436,0.07,-0.67,0.49
45454,0.13,-0.62,0.40
45473,0.13,-0.57,0.35
45491,0.16,-0.52,0.39
45510,0.10,-0.48,0.49
45528,0.06,-0.42,0.60
45547,-0.18,-0.37,0.76
45565,-0.46,-0.42,1.03
45584,-0.73,-0.49,1.21
45602,-0.61,-0.50,1.22
45621,-0.41,-0.47,1.11
45639,-0.24,-0.44,1.10
45658,-0.09,-0.44,1.12
45676,-0.00,-0.45,1.14
45695,0.03,-0.44,1.14
45713,0.05,-0.42,1.06
45732,0.06,-0.19,1.04
45750,-0.01,-0.34,0.88
45769,-0.19,-0.40,1.14
45787,-0.37,-0.41,1.24
45806,-0.27,-0.39,1.31
45824,-0.16,-0.39,1.31
45843,-0.05,-0.39,1.30
45861,-0.01,-0.39,1.30
45880,-0.00,-0.41,1.28
45898,-0.02,-0.40,1.24
45917,-0.09,-0.41,1.09
45935,-0.10,-0.41,1.04
45954,-0.06,-0.36,0.97
45972,-0.02,-0.40,0.94
45991,-0.03,-0.37,0.91
46009,-0.16,-0.37,0.94
46028,-0.23,-0.34,0.91
46046,-0.20,-0.31,0.81
46065,-0.20,-0.28,0.81
46083,-0.21,-0.28,0.92
46102,-0.18,-0.30,1.07
46120,-0.14,-0.29,1.15
46139,-0.08,-0.26,1.09
46157,-0.01,-0.22,0.98
46176,0.01,-0.19,0.93
46194,0.00,-0.17,0.97
46213,0.03,-0.15,0.97
46231,0.04,-0.12,0.96
46250,0.03,-0.12,0.97
46268,-0.02,-0.11,1.06
46287,-0.10,-0.11,1.13
46305,-0.27,-0.12,1.28
46324,-0.41,-0.13,1.33
46342,-0.45,-0.13,1.30
46361,-0.42,-0.11,1.25
46379,-0.37,-0.11,1.23
46398,-0.32,-0.12,1.30
46416,-0.31,-0.12,1.29
46435,-0.29,-0.11,1.25
46453,-0.24,-0.07,1.21
46472,-0.23,-0.07,1.23
46490,-0.22,-0.10,1.24
46509,-0.23,-0.09,1.26
46527,-0.26,-0.09,1.25
46546,-0.32,-0.08,1.25
46564,-0.35,-0.07,1.19
46583,-0.35,-0.07,1.16
46601,-0.31,-0.06,1.14
46620,-0.25,-0.06,1.13
46638,-0.22,-0.06,1.13
46657,-0.19,-0.06,1.09
46675,-0.16,-0.06,1.05
46694,-0.15,-0.06,1.02
46712,-0.14,-0.06,1.00
46731,-0.14,-0.06,1.01
46749,-0.15,-0.06,0.99
46768,-0.15,-0.06,0.92
46786,-0.16,-0.06,0.93
46805,-0.19,-0.07,0.99
46823,-0.21,-0.08,1.01
46842,-0.23,-0.07,0.96
46860,-0.25,-0.07,0.95
46879,-0.24,-0.07,0.99
46897,-0.22,-0.08,0.98
46916,-0.22,-0.07,0.97
46934,-0.20,-0.07,0.95
46953,-0.19,-0.06,0.99
46971,-0.20,-0.06,0.97
46990,-0.19,-0.06,0.98
47008,-0.21,-0.06,1.00
47027,-0.21,-0.06,1.02
47045,-0.23,-0.05,0.99
47064,-0.27,-0.05,0.98
47082,-0.27,-0.07,1.03
47101,-0.28,-0.06,1.03
47119,-0.26,-0.06,1.01
47138,-0.25,-0.06,1.03
47156,-0.23,-0.06,1.02
47175,-0.22,-0.06,1.01
47193,-0.22,-0.07,1.05
47212,-0.25,-0.06,1.06
47230,-0.26,-0.06,1.08
47249,-0.25,-0.06,1.11
47267,-0.26,-0.06,1.16
47286,-0.28,-0.07,1.22
47304,-0.30,-0.08,1.25
47323,-0.29,-0.07,1.26
47341,-0.31,-0.08,1.28
47360,-0.28,-0.08,1.32
47378,-0.24,-0.09,1.32
47397,-0.23,-0.09,1.33
47415,-0.24,-0.10,1.32
47434,-0.24,-0.11,1.32
47452,-0.25,-0.11,1.35
47471,-0.26,-0.12,1.36
47489,-0.24,-0.13,1.41
47508,-0.23,-0.15,1.45
47526,-0.20,-0.15,1.45
47545,-0.14,-0.16,1.42
47563,-0.09,-0.16,1.41
47582,-0.07,-0.17,1.37
47600,-0.10,-0.17,1.38
47619,-0.12,-0.19,1.37
47637,-0.17,-0.21,1.35
47656,-0.19,-0.22,1.26
47674,-0.20,-0.23,1.19
47693,-0.20,-0.23,1.14
47711,-0.15,-0.25,1.04
47730,-0.07,-0.26,1.04
47748,0.03,-0.33,1.07
47767,0.01,-0.31,1.13
47785,-0.03,-0.35,1.19
47804,-0.04,-0.36,1.12
47822,0.04,-0.35,1.02
47841,0.05,-0.38,0.94
47859,0.04,-0.39,0.94
47878,-0.05,-0.44,0.99
47896,-0.20,-0.45,1.08
47915,-0.17,-0.45,1.00
47933,-0.08,-0.41,0.87
47952,0.05,-0.43,0.68
47970,0.06,-0.44,0.68
47989,-0.01,-0.48,0.75
48007,-0.18,-0.53,0.83
48026,-0.15,-0.55,0.75
48044,-0.15,-0.53,0.65
48063,-0.13,-0.54,0.60
48081,-0.09,-0.57,0.55
48100,-0.05,-0.59,0.58
48118,-0.13,-0.61,0.56
48137,-0.18,-0.60,0.54
48155,-0.16,-0.62,0.50
48174,-0.12,-0.63,0.42
48192,-0.15,-0.64,0.38
48211,-0.10,-0.66,0.36
48229,-0.14,-0.66,0.37
48248,-0.14,-0.67,0.31
48266,-0.09,-0.68,0.25
48285,-0.06,-0.70,0.18
48303,-0.07,-0.69,0.16
48322,-0.08,-0.70,0.14
48340,-0.10,-0.71,0.12
48359,-0.08,-0.72,0.08
48377,-0.10,-0.72,0.01
48396,-0.16,-0.77,0.06
48414,-0.20,-0.74,0.02
48433,-0.17,-0.75,-0.03
48451,-0.11,-0.76,0.01
48470,-0.05,-0.76,-0.03
48488,0.00,-0.75,-0.12
48507,-0.02,-0.75,-0.16
48525,-0.06,-0.76,-0.14
48544,-0.08,-0.76,-0.16
48562,-0.15,-0.76,-0.21
48581,-0.20,-0.77,-0.22
48599,-0.17,-0.77,-0.27
48618,-0.18,-0.77,-0.28
48636,-0.12,-0.76,-0.30
48655,-0.08,-0.76,-0.35
48673,-0.04,-0.75,-0.37
48692,-0.04,-0.75,-0.39
48710,-0.09,-0.75,-0.43
48729,-0.12,-0.75,-0.40
48747,-0.13,-0.73,-0.45
48766,-0.10,-0.72,-0.51
48784,-0.07,-0.70,-0.54
48803,-0.05,-0.69,-0.60
48821,-0.04,-0.68,-0.60
48840,-0.03,-0.68,-0.63
48858,-0.05,-0.66,-0.63
48877,-0.05,-0.66,-0.67
48895,-0.10,-0.66,-0.71
48914,-0.11,-0.65,-0.74
48932,-0.09,-0.65,-0.78
48951,-0.09,-0.64,-0.80
48969,-0.10,-0.66,-0.76
48988,-0.06,-0.65,-0.71
49006,-0.05,-0.64,-0.73
49025,-0.03,-0.64,-0.76
49043,0.00,-0.63,-0.85
49062,-0.05,-0.64,-0.81
49080,-0.06,-0.64,-0.85
49099,-0.11,-0.62,-0.84
49117,-0.12,-0.66,-0.82
49136,-0.08,-0.65,-0.83
49154,-0.05,-0.66,-0.78
49173,-0.06,-0.65,-0.79
49191,-0.09,-0.67,-0.67
49210,-0.08,-0.66,-0.65
49228,-0.10,-0.67,-0.66
49247,-0.05,-0.70,-0.71
49265,-0.05,-0.68,-0.74
49284,-0.02,-0.68,-0.68
49302,-0.01,-0.69,-0.73
49321,-0.04,-0.69,-0.69
49339,-0.07,-0.68,-0.66
49358,-0.08,-0.67,-0.63
49376,-0.06,-0.62,-0.73
49395,0.05,-0.62,-0.78
49413,0.06,-0.61,-0.84
49432,0.02,-0.60,-0.81
49450,0.00,-0.59,-0.85
49469,-0.06,-0.58,-0.85
49487,-0.09,-0.57,-0.87
49506,-0.09,-0.54,-0.91
49524,-0.04,-0.52,-0.99
49543,-0.06,-0.50,-1.07
49561,-0.04,-0.49,-1.03
49580,-0.02,-0.49,-1.10
49598,-0.01,-0.50,-1.06
49617,-0.05,-0.50,-1.01
49635,-0.05,-0.50,-1.03
49654,-0.03,-0.51,-0.98
49672,-0.04,-0.52,-0.93
49691,-0.03,-0.52,-0.89
49709,-0.01,-0.54,-0.85
49728,-0.00,-0.57,-0.80
49746,-0.05,-0.59,-0.73
49765,-0.06,-0.61,-0.69
49783,-0.01,-0.61,-0.74
49802,0.03,-0.62,-0.75
49820,0.05,-0.62,-0.76
49839,0.06,-0.63,-0.79
49857,0.04,-0.63,-0.77
49876,0.02,-0.63,-0.77
49894,0.01,-0.63,-0.77
49913,-0.00,-0.62,-0.79
49931,-0.03,-0.62,-0.82
49950,-0.03,-0.62,-0.78
49968,-0.03,-0.63,-0.78
49987,-0.06,-0.62,-0.75
50005,-0.07,-0.63,-0.73
50024,-0.06,-0.63,-0.80
50042,-0.05,-0.62,-0.86
50061,-0.06,-0.63,-0.85
50079,-0.08,-0.65,-0.78
50098,-0.08,-0.66,-0.77
50116,-0.06,-0.66,-0.78
50135,-0.05,-0.64,-0.80
50153,-0.03,-0.63,-0.80
50172,-0.03,-0.62,-0.84
50190,-0.01,-0.60,-0.88
50209,-0.04,-0.59,-0.90
50227,-0.04,-0.57,-0.95
50246,-0.11,-0.54,-1.00
50264,-0.12,-0.55,-0.97
50283,-0.13,-0.55,-0.92
50301,-0.13,-0.55,-0.94
50320,-0.11,-0.55,-0.96
50338,-0.12,-0.55,-0.98
50357,-0.10,-0.55,-0.99
50375,-0.06,-0.56,-0.98
50394,-0.01,-0.56,-0.96
50412,-0.02,-0.56,-0.90
50431,-0.05,-0.56,-0.82
50449,-0.10,-0.57,-0.77
50468,-0.14,-0.57,-0.73
50486,-0.27,-0.56,-0.64
50505,-0.28,-0.60,-0.60
50523,-0.30,-0.61,-0.56
50542,-0.24,-0.61,-0.58
50560,-0.12,-0.62,-0.56
50579,0.00,-0.62,-0.57
50597,0.09,-0.62,-0.55
50616,0.15,-0.63,-0.50
50634,0.17,-0.62,-0.45
50653,-0.10,-0.64,-0.29
50671,-0.27,-0.66,-0.07
50690,-0.36,-0.75,-0.12
50708,-0.39,-0.73,-0.04
50727,-0.28,-0.73,-0.19
50745,-0.21,-0.73,-0.19
50764,-0.14,-0.75,-0.14
50782,-0.08,-0.75,-0.01
50801,-0.02,-0.78,0.10
50819,0.04,-0.78,0.19
50838,0.13,-0.80,0.31
50856,0.09,-0.82,0.42
50875,-0.03,-0.84,0.49
50893,-0.07,-0.86,0.46
50912,-0.07,-0.85,0.35
50930,-0.06,-0.84,0.26
50949,-0.04,-0.82,0.24
50967,-0.04,-0.81,0.25
50986,-0.09,-0.80,0.28
51004,-0.13,-0.79,0.29
51023,-0.14,-0.77,0.31
51041,-0.22,-0.77,0.41
51060,-0.29,-0.77,0.50
51078,-0.34,-0.77,0.53
51097,-0.30,-0.76,0.48
51115,-0.19,-0.75,0.43
51134,-0.12,-0.75,0.45
51152,-0.12,-0.74,0.46
51171,-0.06,-0.74,0.48
51189,0.01,-0.72,0.44
51208,0.03,-0.71,0.41
51226,-0.10,-0.69,0.52
51245,-0.28,-0.67,0.54
51263,-0.33,-0.66,0.75
51282,-0.37,-0.69,0.73
51300,-0.31,-0.68,0.75
51319,-0.18,-0.68,0.66
51337,-0.11,-0.66,0.62
51356,-0.09,-0.65,0.62
51374,-0.04,-0.63,0.62
51393,-0.00,-0.60,0.64
51411,0.11,-0.58,0.67
51430,0.09,-0.54,0.74
51448,0.07,-0.51,0.85
51467,0.09,-0.51,0.77
51485,0.08,-0.43,0.78
51504,0.06,-0.45,0.80
51522,-0.02,-0.44,0.94
51541,0.01,-0.37,1.05
51559,0.05,-0.40,1.09
51578,0.08,-0.42,1.25
51596,0.04,-0.41,1.20
51615,-0.09,-0.41,1.24
51633,-0.18,-0.34,1.18
51652,-0.21,-0.35,1.11
51670,-0.24,-0.35,1.06
51689,-0.15,-0.30,1.06
51707,-0.13,-0.33,1.11
51726,-0.12,-0.31,1.19
51744,-0.13,-0.32,1.18
51763,-0.15,-0.29,1.15
51781,-0.19,-0.31,1.16
51800,-0.19,-0.30,1.13
51818,-0.15,-0.30,1.19
51837,-0.13,-0.29,1.15
51855,-0.13,-0.31,1.24
51874,-0.14,-0.27,1.18
51892,-0.17,-0.27,1.14
51911,-0.17,-0.25,1.01
51929,-0.21,-0.24,0.99
51948,-0.19,-0.24,1.05
51966,-0.20,-0.25,1.08
51985,-0.21,-0.25,1.11
52003,-0.19,-0.25,1.12
52022,-0.22,-0.24,1.10
52040,-0.22,-0.23,1.11
52059,-0.21,-0.23,1.15
52077,-0.23,-0.23,1.20
52096,-0.21,-0.22,1.22
52114,-0.23,-0.21,1.19
52133,-0.27,-0.21,1.18
52151,-0.31,-0.20,1.20
52170,-0.32,-0.20,1.23
52188,-0.31,-0.20,1.26
52207,-0.29,-0.19,1.27
52225,-0.26,-0.18,1.23
52244,-0.26,-0.22,1.23
52262,-0.25,-0.17,1.20
52281,-0.23,-0.17,1.14
52299,-0.25,-0.18,1.16
52318,-0.22,-0.17,1.09
52336,-0.19,-0.18,1.11
52355,-0.19,-0.17,1.06
52373,-0.21,-0.17,1.02
52392,-0.20,-0.18,1.02
52410,-0.20,-0.18,1.01
52429,-0.18,-0.18,0.95
52447,-0.16,-0.17,0.97
52466,-0.16,-0.18,0.96
52484,-0.17,-0.19,1.00
52503,-0.18,-0.19,0.99
52521,-0.20,-0.18,0.96
52540,-0.22,-0.18,1.00
52558,-0.22,-0.18,1.02
52577,-0.22,-0.18,1.03
52595,-0.19,-0.18,1.06
52614,-0.18,-0.18,1.05
52632,-0.18,-0.18,1.05
52651,-0.21,-0.18,1.11
52669,-0.29,-0.19,1.18
52688,-0.31,-0.19,1.23
52706,-0.26,-0.21,1.28
52725,-0.21,-0.20,1.25
52743,-0.19,-0.21,1.28
52762,-0.22,-0.21,1.32
52780,-0.23,-0.21,1.35
52799,-0.23,-0.21,1.33
52817,-0.21,-0.22,1.31
52836,-0.20,-0.23,1.34
52854,-0.19,-0.24,1.37
52873,-0.19,-0.25,1.40
52891,-0.21,-0.26,1.39
52910,-0.17,-0.28,1.42
52928,-0.09,-0.29,1.43
52947,0.00,-0.30,1.42
52965,0.05,-0.31,1.42
52984,0.06,-0.32,1.39
53002,0.06,-0.30,1.34
53021,-0.05,-0.31,1.29
53039,-0.03,-0.33,1.22
53058,-0.16,-0.35,1.29
53076,-0.16,-0.35,1.20
53095,-0.08,-0.34,1.14
53113,0.02,-0.39,1.17
53132,0.13,-0.33,1.09
53150,0.09,-0.43,1.14
53169,0.07,-0.39,0.98
53187,-0.08,-0.42,1.04
53206,-0.10,-0.43,0.95
53224,-0.14,-0.42,0.87
53243,-0.14,-0.44,0.83
53261,-0.12,-0.46,0.80
53280,-0.14,-0.47,0.78
53298,-0.21,-0.49,0.82
53317,-0.23,-0.51,0.74
53335,-0.17,-0.51,0.69
53354,-0.13,-0.51,0.64
53372,-0.13,-0.54,0.68
53391,-0.18,-0.56,0.73
53409,-0.19,-0.58,0.69
53428,-0.13,-0.58,0.60
53446,-0.15,-0.59,0.50
53465,-0.12,-0.62,0.50
53483,-0.14,-0.64,0.48
53502,-0.21,-0.64,0.46
53520,-0.15,-0.64,0.36
53539,-0.08,-0.65,0.25
53557,-0.06,-0.66,0.21
53576,-0.08,-0.67,0.18
53594,-0.14,-0.70,0.25
53613,-0.11,-0.71,0.26
53631,-0.07,-0.71,0.18
53650,-0.06,-0.71,0.14
53668,-0.09,-0.71,0.16
53687,-0.08,-0.70,0.14
53705,-0.08,-0.70,0.04
53724,-0.11,-0.69,0.00
53742,-0.13,-0.69,-0.07
53761,-0.10,-0.68,-0.12
53779,-0.14,-0.69,-0.13
53798,-0.16,-0.69,-0.15
53816,-0.16,-0.70,-0.13
53835,-0.13,-0.69,-0.11
53853,-0.12,-0.68,-0.17
53872,-0.10,-0.67,-0.25
53890,-0.06,-0.64,-0.37
53909,-0.08,-0.64,-0.38
53927,-0.07,-0.63,-0.42
53946,-0.11,-0.63,-0.42
53964,-0.09,-0.62,-0.45
53983,-0.08,-0.62,-0.52
54001,-0.06,-0.60,-0.56
54020,-0.08,-0.60,-0.57
54038,-0.10,-0.60,-0.64
54057,-0.08,-0.58,-0.68
54075,-0.09,-0.58,-0.71
54094,-0.13,-0.59,-0.73
54112,-0.11,-0.58,-0.72
54131,-0.10,-0.58,-0.74
54149,-0.07,-0.57,-0.81
54168,-0.07,-0.57,-0.84
54186,-0.06,-0.57,-0.80
54205,-0.06,-0.57,-0.80
54223,-0.06,-0.57,-0.74
54242,-0.02,-0.55,-0.77
54260,0.03,-0.55,-0.84
54279,0.07,-0.53,-0.98
54297,0.04,-0.53,-0.98
54316,0.03,-0.54,-1.00
54334,-0.03,-0.55,-0.91
54353,-0.07,-0.55,-0.90
54371,-0.05,-0.54,-0.88
54390,-0.03,-0.52,-0.94
54408,-0.00,-0.51,-1.03
54427,0.00,-0.51,-1.07
54445,-0.01,-0.50,-1.10
54464,-0.05,-0.53,-1.05
54482,-0.14,-0.52,-1.02
54501,-0.17,-0.55,-1.03
54519,-0.23,-0.52,-1.05
54538,-0.26,-0.51,-1.06
54556,-0.18,-0.54,-1.00
54575,-0.19,-0.52,-1.08
54593,-0.14,-0.54,-0.95
54612,-0.09,-0.56,-0.91
54630,-0.06,-0.57,-0.90
54649,0.00,-0.59,-0.85
54667,0.00,-0.59,-0.81
54686,0.02,-0.60,-0.78
54704,0.04,-0.61,-0.76
54723,0.02,-0.62,-0.74
54741,-0.02,-0.63,-0.71
54760,-0.05,-0.64,-0.67
54778,-0.08,-0.66,-0.62
54797,-0.05,-0.66,-0.62
54815,-0.00,-0.66,-0.63
54834,0.02,-0.64,-0.67
54852,0.02,-0.63,-0.71
54871,0.02,-0.63,-0.70
54889,0.01,-0.62,-0.73
54908,0.01,-0.61,-0.78
54926,-0.01,-0.60,-0.83
54945,-0.02,-0.59,-0.88
54963,-0.04,-0.59,-0.84
54982,-0.09,-0.59,-0.84
55000,-0.09,-0.59,-0.86
55019,-0.09,-0.60,-0.84
55037,-0.10,-0.60,-0.82
55056,-0.10,-0.60,-0.86
55074,-0.08,-0.61,-0.86
55093,-0.07,-0.60,-0.84
55111,-0.04,-0.60,-0.87
55130,-0.02,-0.58,-0.92
55148,-0.00,-0.56,-1.01
55167,0.01,-0.54,-1.01
55185,0.03,-0.52,-1.03
55204,0.05,-0.51,-1.04
55222,0.05,-0.49,-1.05
55241,0.03,-0.49,-1.04
55259,-0.01,-0.48,-1.03
55278,-0.02,-0.47,-1.06
55296,-0.04,-0.47,-1.10
55315,-0.05,-0.46,-1.09
55333,-0.09,-0.47,-1.07
55352,-0.13,-0.46,-1.04
55370,-0.14,-0.48,-1.00
55389,-0.16,-0.48,-0.96
55407,-0.14,-0.49,-0.91
55426,-0.11,-0.50,-0.87
55444,-0.07,-0.49,-0.87
55463,-0.05,-0.49,-0.85
55481,-0.07,-0.49,-0.80
55500,-0.08,-0.49,-0.71
55518,-0.16,-0.50,-0.63
55537,-0.20,-0.52,-0.49
55555,-0.18,-0.55,-0.41
55574,-0.13,-0.57,-0.43
55592,-0.08,-0.58,-0.45
55611,-0.02,-0.59,-0.49
55629,0.01,-0.59,-0.52
55648,0.01,-0.59,-0.56
55666,-0.03,-0.57,-0.57
55685,-0.13,-0.57,-0.48
55703,-0.28,-0.59,-0.25
55722,-0.32,-0.62,-0.07
55740,-0.34,-0.67,0.08
55759,-0.25,-0.69,0.08
55777,-0.19,-0.69,0.09
55796,-0.10,-0.69,0.08
55814,-0.06,-0.69,0.10
55833,-0.07,-0.71,0.15
55851,-0.08,-0.70,0.19
55870,-0.05,-0.68,0.16
55888,-0.19,-0.66,0.24
55907,-0.40,-0.66,0.41
55925,-0.44,-0.67,0.53
55944,-0.38,-0.67,0.47
55962,-0.30,-0.66,0.42
55981,-0.29,-0.67,0.45
55999,-0.22,-0.68,0.52
56018,-0.15,-0.69,0.53
56036,-0.10,-0.70,0.57
56055,0.04,-0.70,0.53
56073,0.10,-0.68,0.50
56092,0.02,-0.66,0.54
56110,-0.19,-0.66,0.64
56129,-0.36,-0.65,0.72
56147,-0.45,-0.66,0.72
56166,-0.43,-0.59,0.68
56184,-0.29,-0.64,0.59
56203,-0.18,-0.61,0.69
56221,-0.06,-0.60,0.65
56240,0.00,-0.58,0.72
56258,0.08,-0.55,0.78
56277,0.12,-0.53,0.83
56295,-0.04,-0.52,0.94
56314,-0.29,-0.53,1.15
56332,-0.44,-0.52,1.12
56351,-0.42,-0.50,1.04
56369,-0.29,-0.54,0.95
56388,-0.09,-0.58,0.90
56406,0.04,-0.51,0.91
56425,0.09,-0.47,1.03
56443,0.21,-0.48,1.10
56462,0.19,-0.45,1.01
56480,0.15,-0.37,0.95
56499,0.09,-0.35,0.91
56517,-0.01,-0.35,1.06
56536,-0.11,-0.32,1.08
56554,-0.15,-0.33,1.16
56573,-0.19,-0.34,1.28
56591,-0.24,-0.34,1.26
56610,-0.24,-0.27,1.20
56628,-0.17,-0.31,1.10
56647,-0.11,-0.29,1.08
56665,-0.09,-0.28,1.09
56684,-0.01,-0.30,1.17
56702,0.02,-0.29,1.15
56721,0.07,-0.29,1.20
56739,-0.00,-0.27,1.12
56758,-0.12,-0.28,1.13
56776,-0.24,-0.28,1.14
56795,-0.37,-0.31,1.21
56813,-0.41,-0.30,1.23
56832,-0.33,-0.23,1.24
56850,-0.28,-0.41,1.18
56869,-0.20,-0.32,1.41
56887,-0.20,-0.31,1.38
56906,-0.23,-0.30,1.54
56924,-0.24,-0.32,1.52
56943,-0.26,-0.25,1.51
56961,-0.23,-0.26,1.30
56980,-0.25,-0.19,1.29
56998,-0.24,-0.21,1.18
57017,-0.25,-0.15,1.15
57035,-0.21,-0.18,1.21
57054,-0.24,-0.17,1.09
57072,-0.24,-0.18,1.15
57091,-0.26,-0.18,1.10
57109,-0.21,-0.18,1.02
57128,-0.15,-0.15,0.94
57146,-0.09,-0.17,0.91
57165,-0.06,-0.18,0.96
57183,-0.09,-0.18,0.94
57202,-0.13,-0.19,0.95
57220,-0.18,-0.20,0.97
57239,-0.26,-0.18,0.94
57257,-0.26,-0.19,0.96
57276,-0.24,-0.20,0.99
57294,-0.22,-0.20,1.00
57313,-0.20,-0.20,0.98
57331,-0.19,-0.20,0.99
57350,-0.17,-0.19,0.99
57368,-0.18,-0.19,1.00
57387,-0.19,-0.19,1.01
57405,-0.20,-0.19,1.02
57424,-0.21,-0.18,1.00
57442,-0.20,-0.17,0.98
57461,-0.16,-0.17,1.00
57479,-0.16,-0.17,1.01
57498,-0.19,-0.17,0.99
57516,-0.17,-0.17,1.01
57535,-0.17,-0.18,1.02
57553,-0.17,-0.19,1.02
57572,-0.17,-0.20,1.03
57590,-0.16,-0.20,0.98
57609,-0.15,-0.19,0.96
57627,-0.14,-0.20,0.95
57646,-0.16,-0.20,0.94
57664,-0.18,-0.20,0.93
57683,-0.19,-0.20,0.95
57701,-0.20,-0.20,0.96
57720,-0.20,-0.20,0.97
57738,-0.22,-0.20,0.94
57757,-0.21,-0.20,0.93
57775,-0.19,-0.20,0.97
57794,-0.18,-0.20,0.96
57812,-0.18,-0.19,0.95
57831,-0.17,-0.19,0.95
57849,-0.17,-0.20,0.99
57868,-0.19,-0.19,1.00
57886,-0.18,-0.20,1.01
57905,-0.19,-0.19,1.00
57923,-0.20,-0.19,1.00
57942,-0.21,-0.19,1.01
57960,-0.20,-0.20,1.00
57979,-0.19,-0.20,1.01
57997,-0.18,-0.20,1.01
58016,-0.18,-0.20,1.03
58034,-0.16,-0.19,1.00
58053,-0.17,-0.20,1.05
58071,-0.18,-0.20,1.02
58090,-0.18,-0.20,1.00
58108,-0.18,-0.20,1.00
58127,-0.18,-0.20,0.97
58145,-0.17,-0.19,0.94
58164,-0.15,-0.20,0.93
58182,-0.14,-0.21,0.98
58201,-0.18,-0.21,0.92
58219,-0.15,-0.22,0.98
58238,-0.17,-0.22,0.98
58256,-0.17,-0.22,0.98
58275,-0.19,-0.21,1.00
58293,-0.21,-0.21,1.00
58312,-0.21,-0.22,1.01
58330,-0.21,-0.22,1.05
58349,-0.22,-0.22,1.08
58367,-0.24,-0.22,1.13
58386,-0.23,-0.22,1.21
58404,-0.24,-0.23,1.27
58423,-0.21,-0.24,1.32
58441,-0.16,-0.24,1.31
58460,-0.14,-0.25,1.27
58478,-0.05,-0.26,1.29
58497,-0.11,-0.25,1.27
58515,-0.14,-0.25,1.25
58534,-0.14,-0.26,1.32
58552,-0.17,-0.27,1.42
58571,-0.20,-0.28,1.49
58589,-0.19,-0.29,1.52
58608,-0.15,-0.31,1.54
58626,-0.15,-0.33,1.55
58645,-0.15,-0.34,1.51
58663,-0.20,-0.33,1.37
58682,-0.02,-0.32,1.26
58700,-0.07,-0.33,1.26
58719,-0.11,-0.34,1.19
58737,-0.06,-0.37,1.21
58756,-0.08,-0.40,1.30
58774,-0.03,-0.39,1.23
58793,0.04,-0.41,1.23
58811,0.05,-0.41,1.19
58830,0.08,-0.44,1.15
58848,0.08,-0.46,1.12
58867,0.07,-0.44,1.06
58885,0.04,-0.48,1.07
58904,-0.03,-0.42,1.03
58922,-0.12,-0.55,1.03
58941,-0.05,-0.50,0.93
58959,-0.10,-0.54,1.04
58978,-0.03,-0.53,0.92
58996,-0.01,-0.52,0.81
59015,-0.06,-0.53,0.77
59033,-0.11,-0.54,0.73
59052,-0.09,-0.56,0.72
59070,-0.15,-0.57,0.76
59089,-0.16,-0.56,0.67
59107,-0.05,-0.59,0.62
59126,-0.09,-0.60,0.62
59144,-0.06,-0.59,0.61
59163,-0.03,-0.61,0.60
59181,-0.03,-0.61,0.55
59200,-0.03,-0.62,0.42
59218,-0.03,-0.62,0.38
59237,-0.06,-0.64,0.36
59255,-0.08,-0.66,0.42
59274,-0.11,-0.67,0.42
59292,-0.09,-0.65,0.27
59311,-0.07,-0.64,0.18
59329,-0.04,-0.65,0.15
59348,-0.03,-0.66,0.13
59366,-0.05,-0.67,0.11
59385,-0.08,-0.67,0.04
59403,-0.12,-0.65,-0.08
59422,-0.12,-0.66,-0.10
59440,-0.06,-0.68,-0.06
59459,-0.05,-0.67,-0.11
59477,-0.02,-0.67,-0.12
59496,-0.02,-0.66,-0.14
59514,-0.03,-0.66,-0.19
59533,-0.03,-0.66,-0.24
59551,-0.04,-0.67,-0.22
59570,-0.07,-0.68,-0.22
59588,-0.14,-0.67,-0.25
59607,-0.14,-0.67,-0.32
59625,-0.12,-0.66,-0.39
59644,-0.09,-0.66,-0.41
59662,-0.06,-0.65,-0.41
59681,-0.04,-0.65,-0.42
59699,-0.01,-0.64,-0.44
59718,-0.04,-0.63,-0.45
59736,-0.06,-0.62,-0.50
59755,-0.07,-0.63,-0.50
59773,-0.04,-0.63,-0.51
59792,-0.04,-0.62,-0.58
59810,-0.10,-0.61,-0.50
59829,-0.05,-0.59,-0.64
59847,-0.04,-0.57,-0.67
59866,-0.05,-0.56,-0.66
59884,-0.03,-0.54,-0.73
59903,-0.01,-0.53,-0.73
59921,0.01,-0.51,-0.81
59940,0.00,-0.49,-0.91
59958,-0.04,-0.48,-0.92
59977,-0.06,-0.47,-1.01
59995,-0.05,-0.49,-1.02
60014,-0.09,-0.45,-1.09
60032,-0.05,-0.47,-1.04
60051,-0.02,-0.46,-1.04
60069,0.00,-0.46,-1.03
60088,-0.02,-0.46,-1.04
60106,-0.04,-0.47,-1.06
60125,-0.05,-0.46,-1.02
60143,-0.07,-0.45,-1.15
60162,-0.05,-0.46,-1.15
60180,-0.09,-0.45,-1.15
60199,-0.09,-0.44,-1.17
60217,-0.10,-0.43,-1.16
60236,-0.13,-0.43,-1.14
60254,-0.16,-0.45,-1.08
60273,-0.13,-0.45,-1.10
60291,-0.08,-0.46,-1.09
60310,-0.07,-0.48,-1.04
60328,-0.08,-0.50,-0.97
60347,-0.09,-0.52,-0.95
60365,-0.10,-0.54,-0.92
60384,-0.10,-0.56,-0.90
60402,-0.11,-0.58,-0.84
60421,-0.08,-0.59,-0.81
60439,-0.05,-0.60,-0.79
60458,-0.02,-0.60,-0.75
60476,-0.01,-0.59,-0.75
60495,-0.04,-0.59,-0.75
60513,-0.05,-0.58,-0.81
60532,-0.06,-0.56,-0.88
60550,-0.07,-0.54,-0.96
60569,-0.06,-0.51,-1.01
60587,-0.09,-0.48,-1.04
60606,-0.11,-0.45,-1.09
60624,-0.09,-0.44,-1.17
60643,-0.08,-0.44,-1.19
60661,-0.08,-0.46,-1.11
60680,-0.06,-0.47,-1.05
60698,-0.06,-0.47,-1.02
60717,-0.10,-0.49,-0.99
60735,-0.11,-0.50,-0.92
60754,-0.13,-0.51,-0.91
60772,-0.13,-0.51,-0.91
60791,-0.15,-0.51,-0.89
60809,-0.18,-0.51,-0.86
60828,-0.17,-0.52,-0.83
60846,-0.13,-0.52,-0.79
60865,-0.07,-0.52,-0.72
60883,-0.06,-0.54,-0.62
60902,-0.04,-0.55,-0.54
60920,0.02,-0.58,-0.50
60939,0.07,-0.59,-0.47
60957,0.08,-0.59,-0.45
60976,0.00,-0.61,-0.37
60994,-0.12,-0.64,-0.26
61013,-0.15,-0.66,-0.25
61031,-0.14,-0.69,-0.25
61050,-0.10,-0.69,-0.27
61068,-0.04,-0.70,-0.28
61087,0.03,-0.70,-0.25
61105,0.10,-0.70,-0.21
61124,0.17,-0.71,-0.10
61142,0.21,-0.72,-0.05
61161,0.19,-0.72,-0.00
61179,0.14,-0.73,0.05
61198,0.03,-0.73,0.14
61216,-0.19,-0.76,0.31
61235,-0.38,-0.80,0.47
61253,-0.46,-0.83,0.54
61272,-0.31,-0.85,0.54
61290,-0.12,-0.86,0.49
61309,0.04,-0.85,0.46
61327,0.19,-0.86,0.48
61346,0.24,-0.86,0.45
61364,0.24,-0.85,0.38
61383,0.17,-0.83,0.33
61401,0.16,-0.81,0.28
61420,0.05,-0.79,0.31
61438,-0.16,-0.79,0.48
61457,-0.19,-0.79,0.54
61475,-0.17,-0.79,0.60
61494,0.01,-0.79,0.61
61512,0.15,-0.79,0.52
61531,0.16,-0.78,0.42
61549,0.14,-0.78,0.38
61568,0.10,-0.76,0.36
61586,0.03,-0.74,0.34
61605,-0.01,-0.72,0.39
61623,-0.09,-0.71,0.50
61642,-0.08,-0.71,0.60
61660,-0.04,-0.71,0.66
61679,0.02,-0.69,0.65
61697,0.05,-0.66,0.71
61716,0.13,-0.70,0.64
61734,0.01,-0.65,0.63
61753,-0.07,-0.66,0.67
61771,-0.21,-0.60,0.78
61790,-0.22,-0.62,0.70
61808,-0.21,-0.61,0.82
61827,-0.15,-0.62,0.92
61845,-0.05,-0.62,0.94
61864,0.04,-0.62,1.00
61882,0.10,-0.61,1.00
61901,0.14,-0.60,0.98
61919,0.13,-0.58,0.94
61938,0.17,-0.57,0.94
61956,0.15,-0.59,0.87
61975,0.09,-0.52,0.90
61993,-0.04,-0.55,0.94
62012,-0.09,-0.62,0.98
62030,-0.02,-0.56,0.97
62049,0.00,-0.53,0.98
62067,0.04,-0.51,1.03
62086,0.09,-0.52,1.04
62104,0.10,-0.47,1.02
62123,0.12,-0.47,1.02
62141,0.05,-0.47,1.02
62160,0.01,-0.43,1.08
62178,-0.01,-0.45,1.06
62197,-0.09,-0.43,1.08
62215,-0.09,-0.43,1.10
62234,-0.10,-0.39,1.02
62252,-0.14,-0.36,0.93
62271,-0.11,-0.37,0.96
62289,-0.09,-0.36,0.93
62308,-0.20,-0.56,0.92
62326,-1.68,-0.69,2.16
62345,-1.79,-0.50,2.87
62363,-0.24,-0.43,1.03
62382,0.94,-0.39,0.63
62400,1.01,-0.35,0.74
62419,0.58,-0.38,0.84
62437,0.19,-0.43,1.15
62456,0.05,-0.42,1.23
62474,0.14,-0.38,1.07
62493,0.31,-0.33,0.84
62511,0.42,-0.29,0.68
62530,0.33,-0.29,0.71
62548,0.00,-0.32,0.89
62567,-0.12,-0.32,0.98
62585,-0.19,-0.36,1.07
62604,-0.40,-0.37,1.18
62622,-0.42,-0.38,1.17
62641,-0.27,-0.37,1.07
62659,-0.10,-0.36,1.01
62678,-0.01,-0.36,1.00
62696,0.04,-0.36,1.02
62715,0.05,-0.36,1.06
62733,0.04,-0.37,1.07
62752,-0.00,-0.37,1.09
62770,-0.10,-0.37,1.16
62789,-0.16,-0.36,1.20
62807,-0.11,-0.35,1.12
62826,-0.04,-0.34,1.04
62844,0.00,-0.34,1.03
62863,-0.00,-0.33,0.99
62881,-0.02,-0.33,0.99
62900,-0.01,-0.33,0.97
62918,-0.02,-0.32,0.94
62937,-0.04,-0.32,0.92
62955,-0.05,-0.31,0.90
62974,-0.05,-0.33,0.93
62992,-0.09,-0.33,0.90
63011,-0.10,-0.34,0.92
63029,-0.08,-0.33,0.89
63048,-0.09,-0.34,0.90
63066,-0.08,-0.34,0.93
63085,-0.09,-0.35,0.94
63103,-0.10,-0.35,0.92
63122,-0.09,-0.35,0.93
63140,-0.10,-0.35,0.95
63159,-0.09,-0.35,0.94
63177,-0.08,-0.34,0.96
63196,-0.06,-0.34,0.98
63214,-0.06,-0.34,0.97
63233,-0.04,-0.34,0.98
63251,-0.04,-0.34,0.96
63270,-0.05,-0.34,0.97
63288,-0.06,-0.34,0.96
63307,-0.07,-0.34,0.96
63325,-0.09,-0.35,0.98
63344,-0.11,-0.35,0.97
63362,-0.09,-0.35,0.98
63381,-0.07,-0.34,0.98
63399,-0.06,-0.35,0.95
63418,-0.05,-0.34,0.95
63436,-0.04,-0.34,0.93
63455,-0.04,-0.34,0.95
63473,-0.05,-0.34,0.95
63492,-0.06,-0.35,0.94
63510,-0.06,-0.35,0.95
63529,-0.06,-0.34,0.95
63547,-0.08,-0.34,0.94
63566,-0.09,-0.34,0.96
63584,-0.08,-0.34,0.95
63603,-0.09,-0.34,0.96
63621,-0.09,-0.34,0.95
63640,-0.05,-0.34,0.95
63658,-0.06,-0.34,0.95
63677,-0.04,-0.34,0.96
63695,-0.03,-0.34,0.97
63714,-0.04,-0.35,0.97
63732,-0.06,-0.35,0.96
63751,-0.08,-0.35,0.95
63769,-0.08,-0.35,0.95
63788,-0.07,-0.36,0.95
63806,-0.07,-0.36,0.98
63825,-0.08,-0.36,1.01
63843,-0.09,-0.36,1.01
63862,-0.10,-0.36,1.02
63880,-0.09,-0.36,1.03
63899,-0.07,-0.36,1.05
63917,-0.14,-0.37,1.08
63936,-0.07,-0.36,1.12
63954,-0.12,-0.35,1.08
63973,-0.12,-0.36,1.24
63991,-0.08,-0.37,1.28
64010,-0.08,-0.38,1.38
64028,-0.04,-0.39,1.39
64047,-0.02,-0.41,1.43
64065,-0.10,-0.38,1.51
64084,-0.05,-0.39,1.45
64102,-0.01,-0.40,1.45
64121,0.03,-0.40,1.42
64139,0.16,-0.43,1.45
64158,0.10,-0.43,1.32
64176,0.11,-0.43,1.26
64195,0.10,-0.44,1.21
64213,0.06,-0.45,1.18
64232,0.06,-0.44,1.13
64250,0.05,-0.45,1.11
64269,0.01,-0.45,1.03
64287,0.01,-0.45,1.05
64306,0.06,-0.41,1.02
64324,0.01,-0.44,1.07
64343,0.05,-0.49,1.01
64361,-0.03,-0.46,1.04
64380,-0.03,-0.50,1.10
64398,-0.06,-0.49,1.07
64417,-0.04,-0.51,1.05
64435,-0.03,-0.50,1.03
64454,-0.05,-0.52,1.02
64472,-0.01,-0.52,0.98
64491,-0.00,-0.52,0.95
64509,-0.04,-0.53,0.90
64528,-0.04,-0.53,0.87
64546,-0.08,-0.56,0.88
64565,-0.07,-0.57,0.87
64583,-0.07,-0.58,0.79
64602,-0.06,-0.58,0.74
64620,-0.07,-0.60,0.68
64639,-0.07,-0.60,0.67
64657,-0.12,-0.61,0.69
64676,-0.15,-0.64,0.69
64694,-0.16,-0.65,0.71
64713,-0.11,-0.63,0.65
64731,-0.09,-0.64,0.54
64750,-0.11,-0.66,0.53
64768,-0.08,-0.67,0.50
64787,-0.06,-0.68,0.42
64805,-0.10,-0.68,0.33
64824,-0.13,-0.69,0.31
64842,-0.14,-0.70,0.33
64861,-0.12,-0.71,0.31
64879,-0.14,-0.71,0.29
64898,-0.15,-0.71,0.24
64916,-0.12,-0.71,0.18
64935,-0.11,-0.71,0.11
64953,-0.10,-0.71,0.06
64972,-0.15,-0.72,0.06
64990,-0.14,-0.72,0.02
65009,-0.14,-0.72,-0.06
65027,-0.13,-0.72,-0.08
65046,-0.12,-0.72,-0.10
65064,-0.09,-0.72,-0.17
65083,-0.08,-0.72,-0.21
65101,-0.10,-0.72,-0.27
65120,-0.15,-0.73,-0.20
65138,-0.12,-0.74,-0.17
65157,-0.10,-0.73,-0.18
65175,-0.08,-0.72,-0.25
65194,-0.09,-0.71,-0.29
65212,-0.08,-0.71,-0.35
65231,-0.10,-0.71,-0.37
65249,-0.09,-0.71,-0.36
65268,-0.09,-0.70,-0.40
65286,-0.10,-0.70,-0.37
65305,-0.08,-0.69,-0.39
65323,-0.09,-0.68,-0.42
65342,-0.07,-0.66,-0.45
65360,-0.09,-0.66,-0.48
65379,-0.07,-0.64,-0.51
65397,-0.07,-0.64,-0.56
65416,-0.05,-0.63,-0.55
65434,-0.04,-0.62,-0.61
65453,-0.04,-0.61,-0.62
65471,-0.07,-0.61,-0.66
65490,-0.06,-0.61,-0.63
65508,-0.02,-0.60,-0.59
65527,-0.00,-0.58,-0.57
65545,-0.01,-0.55,-0.61
65564,-0.03,-0.52,-0.64
65582,0.00,-0.47,-0.74
65601,-0.03,-0.47,-0.78
65619,0.04,-0.45,-0.85
65638,0.07,-0.46,-0.81
65656,0.04,-0.41,-1.00
65675,0.06,-0.39,-1.10
65693,0.05,-0.36,-1.19
65712,0.04,-0.33,-1.42
65730,-0.02,-0.30,-1.55
65749,-0.03,-0.29,-1.59
65767,-0.13,-0.29,-1.65
65786,-0.10,-0.30,-1.55
65804,-0.06,-0.32,-1.48
65823,-0.05,-0.34,-1.34
65841,-0.02,-0.37,-1.25
65860,-0.00,-0.39,-1.20
65878,-0.01,-0.42,-1.11
65897,-0.04,-0.44,-1.06
65915,-0.04,-0.47,-1.02
65934,-0.05,-0.49,-0.98
65952,-0.05,-0.50,-0.93
65971,-0.02,-0.52,-0.90
65989,-0.00,-0.52,-0.91
66008,0.02,-0.52,-0.90
66026,0.04,-0.52,-0.84
66045,0.05,-0.51,-0.82
66063,0.05,-0.50,-0.82
66082,0.05,-0.50,-0.83
66100,0.06,-0.48,-0.88
66119,0.07,-0.47,-0.92
66137,0.07,-0.47,-0.96
66156,0.09,-0.45,-1.02
66174,0.10,-0.45,-1.04
66193,0.11,-0.46,-1.05
66211,0.13,-0.46,-1.05
66230,0.12,-0.46,-1.03
66248,0.08,-0.47,-1.01
66267,0.06,-0.47,-0.94
66285,0.04,-0.48,-0.91
66304,0.02,-0.49,-0.91
66322,-0.01,-0.49,-0.87
66341,-0.01,-0.50,-0.82
66359,-0.03,-0.51,-0.78
66378,-0.04,-0.52,-0.72
66396,-0.07,-0.53,-0.69
66415,-0.10,-0.55,-0.64
66433,-0.09,-0.55,-0.61
66452,-0.08,-0.56,-0.60
66470,-0.06,-0.57,-0.60
66489,-0.08,-0.58,-0.55
66507,-0.07,-0.59,-0.53
66526,-0.04,-0.59,-0.52
66544,-0.02,-0.59,-0.51
66563,0.02,-0.59,-0.46
66581,-0.01,-0.60,-0.40
66600,-0.03,-0.61,-0.33
66618,-0.01,-0.62,-0.25
66637,-0.00,-0.62,-0.20
66655,-0.03,-0.63,-0.14
66674,-0.05,-0.66,-0.04
66692,-0.16,-0.69,0.10
66711,-0.27,-0.73,0.26
66729,-0.31,-0.80,0.40
66748,-0.29,-0.84,0.48
66766,-0.25,-0.87,0.52
66785,-0.13,-0.89,0.51
66803,-0.01,-0.89,0.45
66822,0.09,-0.88,0.43
66840,0.11,-0.87,0.37
66859,0.06,-0.85,0.29
66877,0.02,-0.83,0.22
66896,-0.11,-0.80,0.14
66914,-0.28,-0.80,0.16
66933,-0.43,-0.80,0.30
66951,-0.58,-0.82,0.51
66970,-0.46,-0.83,0.56
66988,-0.24,-0.83,0.61
67007,-0.04,-0.83,0.64
67025,0.05,-0.83,0.61
67044,0.07,-0.82,0.55
67062,0.07,-0.81,0.48
67081,0.04,-0.79,0.39
67099,-0.02,-0.76,0.35
67118,-0.16,-0.75,0.42
67136,-0.28,-0.73,0.55
67155,-0.31,-0.74,0.68
67173,-0.20,-0.76,0.73
67192,-0.09,-0.73,0.75
67210,-0.03,-0.75,0.69
67229,0.02,-0.75,0.66
67247,-0.02,-0.73,0.59
67266,-0.06,-0.72,0.55
67284,-0.05,-0.65,0.54
67303,-0.04,-0.65,0.55
67321,-0.22,-0.62,0.67
67340,-0.36,-0.61,0.92
67358,-0.47,-0.65,0.96
67377,-0.43,-0.65,1.03
67395,-0.29,-0.65,0.97
67414,-0.21,-0.64,0.90
67432,-0.16,-0.63,0.87
67451,-0.14,-0.61,0.82
67469,-0.06,-0.59,0.92
67488,-0.12,-0.59,0.80
67506,-0.05,-0.55,0.86
67525,-0.16,-0.51,0.88
67543,-0.14,-0.55,0.97
67562,-0.35,-0.55,1.07
67580,-0.39,-0.56,1.06
67599,-0.37,-0.56,0.99
67617,-0.34,-0.54,0.95
67636,-0.29,-0.51,0.84
67654,-0.25,-0.51,0.87
67673,-0.23,-0.50,0.93
67691,-0.22,-0.50,0.96
67710,-0.17,-0.48,0.98
67728,-0.16,-0.47,0.99
67747,-0.25,-0.47,1.04
67765,-0.21,-0.46,1.06
67784,-0.32,-0.45,0.98
67802,-0.32,-0.46,1.02
67821,-0.30,-0.46,1.00
67839,-0.27,-0.44,0.99
67858,-0.23,-0.46,1.02
67876,-0.25,-0.45,1.04
67895,-0.25,-0.45,1.06
67913,-0.23,-0.44,1.10
67932,-0.24,-0.43,1.06
67950,-0.26,-0.41,1.03
67969,-0.32,-0.40,1.04
67987,-0.42,-0.39,1.09
68006,-0.43,-0.41,1.18
68024,-0.52,-0.40,1.23
68043,-0.70,-0.43,1.25
68061,-0.88,-0.41,1.32
68080,-0.60,-0.38,1.17
68098,-0.41,-0.34,1.11
68117,-0.30,-0.34,1.05
68135,-0.19,-0.31,1.03
68154,-0.15,-0.28,0.94
68172,-0.13,-0.28,0.91
68191,-0.15,-0.29,0.90
68209,-0.18,-0.29,0.89
68228,-0.24,-0.30,0.87
68246,-0.32,-0.30,0.86
68265,-0.40,-0.30,0.85
68283,-0.44,-0.32,0.88
68302,-0.46,-0.33,0.89
68320,-0.41,-0.33,0.90
68339,-0.35,-0.33,0.92
68357,-0.26,-0.31,0.91
68376,-0.21,-0.32,0.91
68394,-0.20,-0.32,0.89
68413,-0.29,-0.32,0.93
68431,-0.28,-0.32,0.93
68450,-0.29,-0.31,0.89
68468,-0.33,-0.32,0.91
68487,-0.32,-0.31,0.92
68505,-0.33,-0.32,0.92
68524,-0.32,-0.31,0.95
68542,-0.28,-0.31,0.93
68561,-0.29,-0.32,0.93
68579,-0.30,-0.32,0.97
68598,-0.28,-0.31,0.97
68616,-0.28,-0.31,0.93
68635,-0.30,-0.31,0.91
68653,-0.31,-0.32,0.90
68672,-0.31,-0.32,0.92
68690,-0.31,-0.32,0.92
68709,-0.28,-0.32,0.92
68727,-0.28,-0.31,0.93
68746,-0.28,-0.32,0.91
68764,-0.30,-0.32,0.93
68783,-0.29,-0.32,0.92
68801,-0.31,-0.32,0.93
68820,-0.31,-0.32,0.94
68838,-0.30,-0.31,0.94
68857,-0.29,-0.31,0.93
68875,-0.26,-0.32,0.92
68894,-0.30,-0.30,0.91
68912,-0.30,-0.31,0.95
68931,-0.33,-0.31,0.93
68949,-0.34,-0.41,0.87
68968,-0.20,-0.28,1.04
68986,-0.27,-0.31,0.91
69005,-0.31,-0.31,0.92
69023,-0.29,-0.32,0.93
69042,-0.30,-0.31,0.91
69060,-0.30,-0.32,0.91
69079,-0.29,-0.32,0.92
69097,-0.32,-0.34,0.91
69116,-0.27,-0.33,0.86
69134,-0.32,-0.31,0.99
69153,-0.32,-0.32,0.90
69171,-0.32,-0.32,0.94
69190,-0.30,-0.32,0.92
69208,-0.28,-0.32,0.92
69227,-0.27,-0.32,0.91
69245,-0.27,-0.32,0.91
69264,-0.28,-0.32,0.91
69282,-0.30,-0.32,0.93
69301,-0.32,-0.32,0.92
69319,-0.32,-0.32,0.92
69338,-0.31,-0.32,0.92
69356,-0.30,-0.32,0.93
69375,-0.30,-0.32,0.93
69393,-0.34,-0.32,0.95
69412,-0.39,-0.33,1.01
69430,-0.35,-0.34,0.99
69449,-0.29,-0.33,0.97
69467,-0.24,-0.33,0.95
69486,-0.24,-0.34,0.95
69504,-0.32,-0.34,0.98
69523,-0.37,-0.34,1.03
69541,-0.41,-0.34,1.03
69560,-0.41,-0.37,1.12
69578,-0.44,-0.37,1.24
69597,-0.36,-0.38,1.23
69615,-0.36,-0.38,1.23
69634,-0.38,-0.41,1.26
69652,-0.41,-0.42,1.39
69671,-0.38,-0.43,1.28
69689,-0.38,-0.42,1.25
69708,-0.31,-0.43,1.20
69726,-0.27,-0.44,1.18
69745,-0.22,-0.36,1.15
69763,-0.20,-0.47,1.14
69782,-0.21,-0.47,1.17
69800,-0.16,-0.46,1.17
69819,-0.09,-0.48,1.13
69837,-0.12,-0.47,1.06
69856,-0.17,-0.48,1.06
69874,-0.16,-0.44,1.06
69893,-0.14,-0.47,1.04
69911,-0.14,-0.47,0.96
69930,-0.10,-0.51,1.05
69948,-0.08,-0.51,1.00
69967,-0.14,-0.51,0.96
69985,-0.15,-0.46,0.97
70004,-0.18,-0.58,1.05
70022,-0.14,-0.55,0.98
70041,-0.11,-0.59,1.09
70059,-0.15,-0.57,1.00
70078,-0.14,-0.59,1.01
70096,-0.11,-0.60,1.00
70115,-0.10,-0.61,1.01
70133,-0.11,-0.62,0.98
70152,-0.13,-0.64,1.01
70170,-0.18,-0.64,0.97
70189,-0.21,-0.62,0.89
70207,-0.17,-0.64,0.94
70226,-0.12,-0.65,0.92
70244,-0.08,-0.64,0.90
70263,-0.08,-0.65,0.86
70281,-0.13,-0.65,0.83
70300,-0.15,-0.66,0.77
70318,-0.12,-0.66,0.73
70337,-0.12,-0.67,0.68
70355,-0.17,-0.67,0.70
70374,-0.18,-0.67,0.53
70392,-0.15,-0.65,0.51
70411,-0.19,-0.67,0.52
70429,-0.17,-0.65,0.45
70448,-0.19,-0.67,0.43
70466,-0.15,-0.68,0.35
70485,-0.08,-0.67,0.31
70503,-0.12,-0.67,0.22
70522,-0.16,-0.67,0.11
70540,-0.13,-0.68,0.11
70559,-0.11,-0.68,0.09
70577,-0.08,-0.68,0.05
70596,-0.03,-0.67,-0.01
70614,0.02,-0.65,-0.10
70633,0.03,-0.65,-0.16
70651,-0.08,-0.67,-0.12
70670,-0.14,-0.67,-0.05
70688,-0.15,-0.68,-0.06
70707,-0.13,-0.67,-0.08
70725,-0.07,-0.66,-0.19
70744,-0.05,-0.66,-0.22
70762,-0.03,-0.65,-0.26
70781,-0.08,-0.65,-0.27
70799,-0.09,-0.64,-0.31
70818,-0.08,-0.63,-0.36
70836,-0.11,-0.62,-0.40
70855,-0.12,-0.61,-0.45
70873,-0.12,-0.61,-0.49
70892,-0.09,-0.59,-0.50
70910,-0.12,-0.59,-0.57
70929,-0.08,-0.58,-0.54
70947,-0.07,-0.57,-0.60
70966,-0.09,-0.56,-0.60
70984,-0.05,-0.53,-0.67
71003,-0.03,-0.52,-0.74
71021,-0.02,-0.50,-0.78
71040,-0.02,-0.49,-0.84
71058,-0.05,-0.48,-0.88
71077,-0.08,-0.48,-0.91
71095,-0.10,-0.47,-0.94
71114,-0.10,-0.46,-0.97
71132,-0.11,-0.49,-0.94
71151,-0.15,-0.47,-0.93
71169,-0.10,-0.49,-0.95
71188,-0.12,-0.48,-0.91
71206,-0.16,-0.49,-0.87
71225,-0.17,-0.47,-0.91
71243,-0.18,-0.50,-0.92
71262,-0.15,-0.49,-0.96
71280,-0.16,-0.50,-1.00
71299,-0.19,-0.49,-0.98
71317,-0.19,-0.48,-0.96
71336,-0.20,-0.47,-0.97
71354,-0.20,-0.46,-0.99
71373,-0.18,-0.44,-1.07
71391,-0.17,-0.43,-1.12
71410,-0.17,-0.42,-1.14
71428,-0.16,-0.41,-1.19
71447,-0.18,-0.40,-1.20
71465,-0.18,-0.40,-1.22
71484,-0.21,-0.41,-1.22
71502,-0.22,-0.42,-1.17
71521,-0.19,-0.43,-1.12
71539,-0.15,-0.44,-1.08
71558,-0.12,-0.45,-1.08
71576,-0.08,-0.45,-1.04
71595,-0.09,-0.46,-1.02
71613,-0.08,-0.48,-0.97
71632,-0.10,-0.49,-0.95
71650,-0.09,-0.49,-0.95
71669,-0.08,-0.49,-0.93
71687,-0.07,-0.49,-0.94
71706,-0.08,-0.49,-0.96
71724,-0.08,-0.49,-0.97
71743,-0.09,-0.49,-0.96
71761,-0.12,-0.50,-0.95
71780,-0.16,-0.51,-0.92
71798,-0.16,-0.52,-0.92
71817,-0.18,-0.53,-0.91
71835,-0.18,-0.53,-0.92
71854,-0.16,-0.53,-0.92
71872,-0.14,-0.55,-0.89
71891,-0.15,-0.55,-0.86
71909,-0.17,-0.56,-0.82
71928,-0.19,-0.57,-0.75
71946,-0.24,-0.58,-0.71
71965,-0.25,-0.59,-0.67
71983,-0.24,-0.60,-0.63
72002,-0.19,-0.61,-0.64
72020,-0.17,-0.61,-0.63
72039,-0.14,-0.63,-0.60
72057,-0.11,-0.63,-0.60
72076,-0.09,-0.64,-0.60
72094,-0.07,-0.64,-0.60
72113,-0.07,-0.65,-0.56
72131,-0.06,-0.64,-0.51
72150,-0.11,-0.66,-0.43
72168,-0.20,-0.66,-0.34
72187,-0.21,-0.68,-0.31
72205,-0.20,-0.67,-0.29
72224,-0.16,-0.70,-0.35
72242,-0.13,-0.68,-0.27
72261,-0.10,-0.68,-0.33
72279,-0.07,-0.69,-0.26
72298,-0.04,-0.69,-0.22
72316,0.02,-0.68,-0.20
72335,0.10,-0.68,-0.15
72353,0.05,-0.67,-0.06
72372,-0.10,-0.68,0.07
72390,-0.23,-0.69,0.18
72409,-0.28,-0.69,0.23
72427,-0.24,-0.69,0.26
72446,-0.13,-0.69,0.25
72464,0.01,-0.69,0.27
72483,0.09,-0.69,0.27
72501,0.16,-0.68,0.24
72520,0.17,-0.67,0.22
72538,0.16,-0.65,0.25
72557,0.13,-0.63,0.28
72575,0.11,-0.61,0.30
72594,0.02,-0.62,0.38
72612,-0.19,-0.57,0.55
72631,-0.32,-0.61,0.75
72649,-0.23,-0.62,0.82
72668,-0.08,-0.63,0.80
72686,0.03,-0.63,0.78
72705,0.13,-0.64,0.77
72723,0.16,-0.66,0.76
72742,0.19,-0.66,0.77
72760,0.17,-0.65,0.73
72779,0.07,-0.64,0.69
72797,-0.11,-0.63,0.71
72816,-0.27,-0.56,0.78
72834,-0.32,-0.61,0.74
72853,-0.29,-0.62,0.82
72871,-0.19,-0.58,0.86
72890,-0.14,-0.60,0.91
72908,-0.13,-0.59,0.93
72927,-0.13,-0.60,0.93
72945,-0.11,-0.59,0.89
72964,-0.12,-0.57,0.82
72982,-0.13,-0.55,0.75
73001,-0.12,-0.64,0.80
73019,-0.17,-0.60,0.77
73038,-0.16,-0.47,0.83
73056,-0.15,-0.44,0.88
73075,-0.12,-0.40,0.85
73093,-0.04,-0.36,0.85
73112,-0.07,-0.29,0.78
73130,-0.05,-0.24,0.77
73149,-0.05,-0.18,0.72
73167,0.09,-0.16,0.96
73186,0.18,-0.13,1.04
73204,0.25,-0.14,1.28
73223,0.29,-0.18,1.37
73241,0.47,-0.11,1.55
73260,0.28,-0.19,1.42
73278,0.09,-0.19,1.58
73297,0.01,-0.23,1.44
73315,-0.07,-0.24,1.37
73334,-0.07,-0.20,1.35
73352,-0.20,-0.20,1.54
73371,-0.45,-0.30,1.90
73389,-0.67,-0.43,2.45
73408,-0.67,-0.40,2.27
73426,-0.63,-0.35,2.12
73445,-0.58,-0.30,1.87
73463,-0.45,-0.22,1.54
73482,-0.25,-0.18,1.37
73500,-0.09,-0.15,1.22
73519,0.01,-0.15,1.11
73537,0.07,-0.13,1.01
73556,0.09,-0.13,0.90
73574,0.12,-0.13,0.84
73593,0.13,-0.13,0.78
73611,0.12,-0.12,0.69
73630,0.12,-0.14,0.72
73648,0.09,-0.16,0.74
73667,0.04,-0.17,0.76
73685,-0.03,-0.19,0.81
73704,-0.13,-0.20,0.85
73722,-0.22,-0.22,0.87
73741,-0.28,-0.24,0.91
73759,-0.34,-0.26,0.95
73778,-0.42,-0.25,1.03
73796,-0.45,-0.27,1.02
73815,-0.41,-0.27,1.06
73833,-0.33,-0.26,1.08
73852,-0.26,-0.23,1.03
73870,-0.18,-0.22,1.00
73889,-0.13,-0.21,0.98
73907,-0.10,-0.20,0.96
73926,-0.06,-0.20,0.95
73944,-0.04,-0.19,0.95
73963,-0.05,-0.19,0.96
73981,-0.06,-0.20,0.96
74000,-0.06,-0.20,0.98
74018,-0.06,-0.20,1.00
74037,-0.07,-0.21,1.02
74055,-0.09,-0.22,1.04
74074,-0.10,-0.23,1.05
74092,-0.11,-0.23,1.05
74111,-0.13,-0.23,1.04
74129,-0.13,-0.24,1.02
74148,-0.16,-0.23,0.98
74166,-0.16,-0.24,0.96
74185,-0.17,-0.24,0.98
74203,-0.18,-0.24,0.96
74222,-0.20,-0.23,0.97
74240,-0.20,-0.23,0.96
74259,-0.21,-0.23,0.97
74277,-0.21,-0.23,0.98
74296,-0.20,-0.23,0.99
74314,-0.20,-0.23,1.00
74333,-0.19,-0.23,0.99
74351,-0.17,-0.23,0.98
74370,-0.17,-0.23,0.96
74388,-0.16,-0.23,0.97
74407,-0.15,-0.23,0.98
74425,-0.14,-0.23,0.97
74444,-0.13,-0.23,0.97
74462,-0.15,-0.24,0.98
74481,-0.16,-0.24,0.97
74499,-0.18,-0.24,0.97
74518,-0.18,-0.24,0.97
74536,-0.19,-0.24,0.98
74555,-0.20,-0.24,0.98
74573,-0.20,-0.24,0.97
74592,-0.18,-0.24,0.97
74610,-0.16,-0.25,0.97
74629,-0.14,-0.24,0.97
74647,-0.14,-0.24,0.96
74666,-0.14,-0.24,0.96
74684,-0.16,-0.24,0.97
74703,-0.16,-0.24,0.97
74721,-0.16,-0.24,0.97
74740,-0.16,-0.24,0.97
74758,-0.17,-0.24,0.97
74777,-0.19,-0.25,0.99
74795,-0.19,-0.25,0.98
74814,-0.18,-0.25,0.98
74832,-0.18,-0.25,0.98
74851,-0.18,-0.25,0.98
74869,-0.19,-0.24,0.98
74888,-0.20,-0.25,0.98
74906,-0.20,-0.25,0.98
74925,-0.19,-0.24,0.97
74943,-0.19,-0.25,0.96
74962,-0.17,-0.25,0.96
74980,-0.16,-0.24,0.95
74999,-0.15,-0.25,0.96
75017,-0.15,-0.25,0.96
75036,-0.15,-0.25,0.96
75054,-0.15,-0.25,0.97
75073,-0.15,-0.25,0.96
75091,-0.16,-0.25,0.97
75110,-0.17,-0.25,0.96
75128,-0.17,-0.25,0.97
75147,-0.17,-0.25,0.97
75165,-0.17,-0.25,0.96
75184,-0.18,-0.26,0.99
75202,-0.18,-0.26,0.98
75221,-0.17,-0.26,0.97
75239,-0.18,-0.25,0.97
75258,-0.17,-0.25,0.97
75276,-0.17,-0.25,0.97
75295,-0.18,-0.25,0.97
75313,-0.18,-0.25,0.97
75332,-0.18,-0.25,0.96
75350,-0.17,-0.25,0.97
75369,-0.18,-0.25,0.97
75387,-0.19,-0.26,0.96
75406,-0.19,-0.26,0.97
75424,-0.18,-0.26,0.97
75443,-0.18,-0.26,0.98
75461,-0.18,-0.26,0.97
75480,-0.17,-0.26,0.97
75498,-0.17,-0.26,0.98
75517,-0.18,-0.26,0.96
75535,-0.18,-0.26,0.98
75554,-0.17,-0.26,0.97
75572,-0.18,-0.26,0.97
75591,-0.18,-0.26,0.99
75609,-0.17,-0.26,0.97
75628,-0.16,-0.25,0.97
75646,-0.17,-0.25,0.96
75665,-0.17,-0.26,0.98
75683,-0.17,-0.26,0.96
75702,-0.16,-0.26,0.94
75720,-0.17,-0.25,0.94
75739,-0.17,-0.26,0.95
75757,-0.18,-0.26,0.96
75776,-0.18,-0.26,0.97
75794,-0.19,-0.26,0.97
75813,-0.20,-0.26,0.98
75831,-0.20,-0.27,0.98
75850,-0.19,-0.27,0.99
75868,-0.17,-0.26,0.99
75887,-0.18,-0.26,0.98
75905,-0.17,-0.26,0.97
75924,-0.17,-0.26,0.97
75942,-0.17,-0.26,0.97
75961,-0.16,-0.26,0.97
75979,-0.16,-0.26,0.96
75998,-0.17,-0.26,0.96
76016,-0.18,-0.26,0.96
76035,-0.19,-0.26,0.95
76053,-0.19,-0.26,0.95
76072,-0.18,-0.26,0.96
76090,-0.18,-0.26,0.96
76109,-0.18,-0.26,0.97
76127,-0.19,-0.27,0.97
76146,-0.17,-0.27,0.97
76164,-0.17,-0.27,0.97
76183,-0.17,-0.27,0.98
76201,-0.18,-0.27,0.98
76220,-0.18,-0.27,0.98
76238,-0.18,-0.26,0.97
76257,-0.17,-0.26,0.98
76275,-0.18,-0.26,0.97
76294,-0.17,-0.26,0.97
76312,-0.17,-0.26,0.96
76331,-0.17,-0.26,0.96
76349,-0.17,-0.26,0.96
76368,-0.18,-0.26,0.97
76386,-0.19,-0.26,0.97
76405,-0.19,-0.26,0.97
76423,-0.19,-0.26,0.96
76442,-0.18,-0.26,0.98
76460,-0.19,-0.26,0.98
76479,-0.18,-0.26,0.96
76497,-0.18,-0.26,0.96
