AX,AY,AZ
1.22
-0.81,-0.17,-1.30
-0.71,-0.16,-1.17
-0.60,-0.11,-1.03
-0.34,-0.04,-0.74
-0.25,-0.17,-0.50
-0.46,-0.12,-0.53
-0.54,-0.11,-0.76
-0.50,-0.13,-0.87
-0.44,-0.15,-0.88
-0.43,-0.16,-0.82
-0.45,-0.15,-0.71
-0.43,-0.15,-0.65
-0.36,-0.14,-0.73
-0.20,-0.12,-0.77
-0.08,-0.08,-0.87
0.04,-0.08,-0.80
-0.03,-0.11,-0.64
-0.30,-0.09,-0.76
-0.43,-0.13,-1.09
-0.38,-0.10,-1.23
-0.23,-0.11,-1.30
-0.05,-0.13,-1.14
0.10,-0.16,-0.91
0.14,-0.20,-0.72
0.15,-0.15,-0.64
0.13,-0.11,-0.70
0.10,-0.07,-0.66
0.06,-0.06,-0.67
0.02,-0.03,-0.83
-0.07,-0.02,-1.20
-0.03,-0.05,-1.27
0.07,-0.08,-1.28
0.12,-0.10,-1.22
0.10,-0.11,-1.18
0.16,-0.07,-1.05
0.28,-0.04,-0.82
0.38,-0.06,-0.85
0.46,-0.01,-0.81
0.52,-0.03,-1.09
0.26,0.01,-0.96
0.15,-0.02,-1.01
0.14,-0.01,-1.04
0.29,-0.02,-0.97
0.40,-0.04,-0.96
0.28,-0.03,-1.02
-0.02,-0.03,-0.82
-0.09,-0.03,-0.80
0.16,-0.06,-0.79
0.35,-0.07,-0.85
0.23,-0.07,-1.00
0.05,-0.07,-0.83
0.13,-0.06,-0.87
0.24,-0.04,-0.91
0.32,-0.06,-0.92
0.38,-0.08,-0.94
0.42,-0.07,-0.98
0.40,-0.06,-0.95
0.32,-0.07,-0.87
0.30,-0.05,-0.86
0.31,-0.09,-0.92
0.34,-0.07,-0.92
0.37,-0.05,-0.87
0.37,-0.07,-0.78
0.29,-0.04,-0.87
0.30,-0.04,-0.97
0.35,-0.05,-0.95
0.40,-0.05,-1.01
0.44,-0.04,-1.00
0.42,-0.05,-0.98
0.37,-0.05,-0.94
0.35,-0.07,-0.89
0.33,-0.06,-0.92
0.34,-0.07,-0.95
0.34,-0.07,-0.95
0.35,-0.07,-0.94
0.36,-0.07,-0.96
0.35,-0.06,-1.00
0.32,-0.07,-0.99
0.31,-0.06,-0.97
0.28,-0.07,-0.93
0.29,-0.05,-0.92
0.28,-0.06,-0.91
0.25,-0.07,-0.94
0.26,-0.06,-1.03
0.32,-0.07,-1.04
0.33,-0.10,-0.94
0.28,-0.10,-1.01
0.29,-0.11,-1.04
0.20,-0.10,-1.02
0.11,-0.09,-1.03
0.12,-0.08,-0.96
0.15,-0.10,-0.97
0.16,-0.11,-0.89
0.10,-0.11,-0.90
0.02,-0.11,-0.85
-0.04,-0.10,-0.96
0.03,-0.11,-1.03
0.08,-0.11,-1.12
-0.04,-0.10,-1.08
-0.10,-0.12,-1.09
-0.08,-0.11,-1.04
-0.07,-0.10,-0.96
-0.12,-0.10,-0.90
-0.20,-0.11,-0.81
-0.26,-0.12,-0.70
-0.28,-0.12,-0.69
-0.33,-0.13,-0.79
-0.38,-0.12,-0.96
-0.39,-0.12,-1.05
-0.34,-0.13,-1.06
-0.28,-0.14,-0.97
-0.33,-0.10,-0.87
-0.37,-0.13,-0.80
-0.46,-0.13,-0.76
-0.41,-0.14,-0.76
-0.33,-0.15,-0.82
-0.34,-0.15,-0.86
-0.49,-0.13,-0.87
-0.37,-0.13,-0.80
-0.15,-0.14,-0.69
-0.11,-0.12,-0.69
-0.01,-0.11,-0.72
0.09,-0.08,-0.74
0.17,-0.08,-1.01
0.21,-0.09,-1.30
0.29,-0.08,-1.22
0.26,-0.09,-1.00
0.22,-0.13,-0.91
0.24,-0.07,-0.95
0.42,-0.06,-0.91
0.57,-0.06,-0.82
0.62,-0.06,-0.74
0.61,-0.04,-0.70
0.59,-0.05,-0.69
0.64,-0.06,-0.75
0.79,-0.08,-0.94
0.94,-0.09,-0.99
1.01,-0.08,-0.92
0.92,-0.06,-0.77
0.82,-0.06,-0.72
0.78,-0.08,-0.79
0.83,-0.08,-0.82
0.83,-0.11,-0.70
0.77,-0.12,-0.62
0.74,-0.14,-0.72
0.69,-0.13,-0.69
0.48,-0.12,-0.73
0.35,-0.11,-0.78
0.29,-0.15,-0.78
0.18,-0.07,-0.77
-0.28,-0.26,-0.62
-0.53,-0.07,-0.45
-0.73,-0.06,-0.60
-0.76,0.00,-0.99
-0.63,0.05,-1.16
-0.50,-0.01,-1.15
-0.46,-0.09,-1.06
-0.45,-0.05,-0.81
-0.60,-0.05,-0.57
-0.84,-0.03,-0.60
-0.84,-0.04,-0.69
-0.53,-0.13,-0.65
-0.47,-0.11,-0.65
-0.52,-0.13,-0.64
-0.44,-0.13,-0.51
-0.42,-0.13,-0.55
-0.39,-0.06,-0.83
-0.24,-0.07,-1.04
-0.08,-0.10,-1.04
-0.10,-0.15,-0.75
-0.28,-0.15,-0.53
-0.17,-0.11,-0.53
0.28,-0.10,-0.67
0.70,-0.09,-0.78
0.89,-0.06,-0.99
0.90,-0.05,-1.14
0.67,-0.05,-1.19
0.36,-0.04,-1.10
0.12,-0.04,-0.93
0.14,-0.06,-0.78
0.32,-0.08,-0.74
0.56,-0.10,-0.66
0.73,-0.10,-0.63
0.83,-0.10,-0.73
0.78,-0.07,-0.85
0.82,-0.09,-0.70
0.89,-0.08,-0.56
0.94,-0.04,-0.68
1.03,-0.04,-0.81
1.06,-0.04,-0.68
1.08,-0.02,-0.50
1.23,-0.01,-0.56
1.42,-0.03,-0.70
1.46,-0.05,-0.65
1.38,-0.04,-0.49
1.36,-0.03,-0.44
1.35,-0.02,-0.58
1.28,-0.00,-0.70
1.06,0.02,-0.71
0.79,0.04,-0.69
0.70,0.07,-0.77
0.71,-0.00,-0.78
0.61,-0.03,-0.76
0.33,-0.06,-0.62
-0.05,-0.06,-0.58
-0.38,-0.01,-0.76
-0.41,-0.04,-0.85
-0.47,-0.06,-0.88
-0.56,-0.09,-0.81
-0.71,-0.11,-0.80
-0.83,-0.05,-0.84
-0.75,-0.10,-0.69
-0.76,-0.11,-0.61
-0.92,-0.12,-0.58
-0.96,-0.10,-0.69
-0.87,-0.10,-0.75
-0.79,-0.07,-0.79
-0.56,-0.10,-0.80
-0.31,-0.10,-0.82
-0.20,-0.12,-0.86
-0.19,-0.13,-0.94
-0.06,-0.16,-0.93
0.13,-0.20,-0.70
0.36,-0.25,-0.42
0.62,-0.30,-0.33
0.84,-0.30,-0.46
0.99,-0.31,-0.57
1.06,-0.29,-0.58
1.17,-0.26,-0.53
1.27,-0.29,-0.50
1.23,-0.27,-0.44
1.21,-0.28,-0.30
1.16,-0.28,-0.35
1.11,-0.26,-0.43
1.07,-0.24,-0.50
0.98,-0.18,-0.74
0.98,-0.11,-0.97
1.08,-0.12,-0.99
0.99,-0.13,-0.91
0.69,-0.15,-0.76
0.43,-0.13,-0.66
0.27,-0.14,-0.69
0.15,-0.13,-0.84
0.08,-0.13,-0.95
0.03,-0.14,-0.97
-0.14,-0.13,-0.95
-0.37,-0.12,-0.96
-0.68,-0.10,-1.03
-0.99,-0.06,-1.10
-1.23,-0.06,-1.10
-1.38,-0.05,-1.09
-1.34,-0.05,-1.08
-1.22,-0.06,-1.07
-1.16,-0.07,-0.99
-1.20,-0.08,-0.91
-1.13,-0.07,-0.76
-0.92,-0.08,-0.55
-0.73,-0.10,-0.39
-0.67,-0.06,-0.47
-0.51,-0.01,-0.74
-0.21,0.04,-0.97
0.11,0.04,-1.02
0.47,0.03,-0.89
0.78,-0.00,-0.85
1.00,0.01,-1.03
1.20,0.02,-1.26
1.46,0.02,-1.41
1.63,0.01,-1.41
1.61,0.01,-1.42
1.52,0.00,-1.44
1.43,0.00,-1.42
1.39,-0.01,-1.27
1.34,-0.01,-1.12
1.20,-0.01,-1.06
1.00,0.01,-1.10
0.78,0.02,-1.04
0.57,0.02,-0.94
0.37,-0.00,-0.90
0.20,-0.02,-0.91
0.05,-0.05,-0.90
-0.18,-0.06,-0.86
-0.48,-0.08,-0.81
-0.81,-0.07,-0.89
-1.12,-0.08,-0.88
-1.30,-0.09,-0.81
-1.34,-0.11,-0.77
-1.36,-0.16,-0.78
-1.40,-0.18,-0.77
-1.40,-0.20,-0.74
-1.29,-0.24,-0.63
-1.15,-0.25,-0.46
-1.00,-0.27,-0.33
-0.89,-0.24,-0.35
-0.83,-0.22,-0.43
-0.73,-0.17,-0.55
-0.51,-0.11,-0.66
-0.16,-0.09,-0.76
0.18,-0.11,-0.93
0.46,-0.06,-0.96
0.76,-0.04,-1.04
1.01,-0.06,-1.15
1.22,-0.05,-1.26
1.39,-0.06,-1.32
1.51,-0.07,-1.35
1.50,-0.08,-1.37
1.41,-0.08,-1.34
1.39,-0.09,-1.26
1.35,-0.07,-1.22
1.30,-0.05,-1.22
1.20,-0.04,-1.20
0.99,-0.02,-1.14
0.77,-0.01,-1.07
0.59,-0.00,-0.98
0.41,0.00,-0.92
0.18,-0.01,-0.89
-0.07,-0.03,-0.97
-0.32,-0.05,-1.06
-0.57,-0.06,-1.06
-0.81,-0.07,-0.94
-1.06,-0.11,-0.86
-1.31,-0.10,-0.85
-1.46,-0.12,-0.86
-1.54,-0.13,-0.84
-1.62,-0.16,-0.81
-1.62,-0.17,-0.77
-1.49,-0.18,-0.73
-1.31,-0.18,-0.68
-1.20,-0.19,-0.64
-1.10,-0.17,-0.59
-0.94,-0.14,-0.53
-0.76,-0.12,-0.52
-0.57,-0.07,-0.62
-0.27,-0.03,-0.78
0.08,-0.06,-0.92
0.37,-0.01,-0.92
0.74,0.02,-0.96
1.21,0.02,-1.07
1.64,-0.03,-1.17
1.81,-0.05,-1.32
1.73,-0.05,-1.43
1.60,-0.10,-1.37
1.53,-0.09,-1.24
1.52,-0.10,-1.14
1.46,-0.11,-1.06
1.33,-0.10,-0.97
1.19,-0.08,-0.91
1.09,-0.08,-0.92
0.89,-0.07,-0.98
0.62,-0.05,-0.98
0.37,-0.06,-0.85
0.09,-0.11,-0.78
-0.25,-0.11,-0.87
-0.52,-0.11,-0.92
-0.70,-0.13,-0.90
-0.89,-0.14,-0.89
-1.14,-0.13,-0.88
-1.37,-0.16,-0.86
-1.54,-0.18,-0.82
-1.60,-0.19,-0.78
-1.52,-0.20,-0.76
-1.33,-0.22,-0.75
-1.15,-0.23,-0.73
-1.07,-0.21,-0.72
-1.00,-0.19,-0.67
-0.89,-0.15,-0.62
-0.70,-0.11,-0.71
-0.45,-0.07,-0.81
-0.12,-0.04,-0.79
0.23,-0.08,-0.82
0.58,-0.04,-0.88
0.92,-0.02,-1.10
1.17,-0.02,-1.25
1.32,-0.01,-1.30
1.43,-0.01,-1.30
1.60,-0.06,-1.26
1.69,-0.10,-1.17
1.60,-0.09,-1.19
1.44,-0.07,-1.27
1.31,-0.08,-1.27
1.21,-0.06,-1.15
1.07,-0.06,-0.99
0.89,-0.06,-0.92
0.71,-0.06,-0.85
0.50,-0.07,-0.82
0.20,-0.07,-0.87
-0.07,-0.08,-0.92
-0.29,-0.10,-0.95
-0.53,-0.09,-0.98
-0.79,-0.11,-0.96
-1.01,-0.11,-0.91
-1.21,-0.15,-0.87
-1.44,-0.16,-0.89
-1.58,-0.17,-0.94
-1.56,-0.18,-0.91
-1.44,-0.20,-0.84
-1.27,-0.21,-0.80
-1.11,-0.22,-0.73
-0.98,-0.21,-0.67
-0.85,-0.20,-0.65
-0.71,-0.18,-0.56
-0.53,-0.17,-0.41
-0.28,-0.14,-0.40
-0.02,-0.11,-0.61
0.22,-0.10,-0.91
0.49,-0.02,-0.97
0.85,-0.05,-0.96
1.11,-0.02,-1.07
1.28,-0.03,-1.21
1.37,-0.02,-1.33
1.48,-0.08,-1.28
1.50,-0.06,-1.23
1.47,-0.05,-1.24
1.44,-0.05,-1.19
1.32,-0.05,-1.16
1.14,-0.02,-1.14
1.04,-0.01,-1.09
0.93,-0.01,-1.00
0.73,0.00,-0.93
0.49,0.01,-0.92
0.25,-0.00,-0.94
0.00,-0.03,-1.01
-0.24,-0.06,-1.02
-0.43,-0.11,-0.95
-0.62,-0.15,-0.90
-0.83,-0.17,-0.90
-1.06,-0.16,-0.92
-1.28,-0.14,-0.96
-1.44,-0.13,-0.98
-1.53,-0.14,-0.96
-1.50,-0.13,-0.98
-1.35,-0.15,-0.93
-1.17,-0.18,-0.87
-1.05,-0.19,-0.77
-0.97,-0.17,-0.68
-0.78,-0.16,-0.54
-0.61,-0.15,-0.43
-0.53,-0.10,-0.51
-0.38,-0.03,-0.72
-0.09,0.02,-0.87
0.27,0.05,-0.93
0.67,0.06,-0.95
1.01,0.04,-1.02
1.24,0.05,-1.14
1.37,0.05,-1.27
1.42,0.02,-1.32
1.47,0.01,-1.27
1.56,0.00,-1.21
1.60,0.01,-1.22
1.57,0.01,-1.22
1.42,0.02,-1.16
1.24,0.04,-1.09
1.17,0.03,-1.00
1.06,0.02,-0.90
0.84,0.04,-0.87
0.63,0.05,-0.86
0.41,0.03,-0.85
0.14,0.01,-0.93
-0.12,-0.02,-0.94
-0.32,-0.07,-0.89
-0.54,-0.10,-0.90
-0.78,-0.11,-0.93
-1.02,-0.13,-0.93
-1.23,-0.13,-0.94
-1.36,-0.12,-0.98
-1.44,-0.13,-0.98
-1.44,-0.15,-0.93
-1.36,-0.17,-0.88
-1.30,-0.18,-0.84
-1.17,-0.19,-0.78
-1.03,-0.19,-0.74
-0.95,-0.17,-0.72
-0.86,-0.14,-0.68
-0.75,-0.10,-0.64
-0.66,-0.04,-0.65
-0.51,0.02,-0.73
-0.24,0.08,-0.83
0.13,0.12,-0.87
0.48,0.12,-0.90
0.76,0.13,-1.00
1.03,0.15,-1.17
1.30,0.14,-1.30
1.47,0.09,-1.32
1.56,0.06,-1.26
1.64,0.06,-1.23
1.65,0.06,-1.27
1.62,0.05,-1.30
1.57,0.03,-1.25
1.49,0.03,-1.16
1.33,0.04,-1.07
1.17,0.06,-1.01
1.04,0.06,-0.96
0.81,0.07,-0.92
0.54,0.08,-0.90
0.34,0.07,-0.90
0.17,0.06,-0.94
-0.04,0.04,-0.95
-0.30,-0.01,-0.95
-0.53,-0.05,-0.97
-0.66,-0.09,-0.97
-0.75,-0.13,-0.93
-0.92,-0.14,-0.92
-1.19,-0.16,-0.95
-1.44,-0.18,-0.95
-1.54,-0.19,-0.90
-1.52,-0.22,-0.88
-1.47,-0.22,-0.85
-1.36,-0.21,-0.79
-1.22,-0.20,-0.70
-1.11,-0.18,-0.61
-0.99,-0.15,-0.58
-0.87,-0.11,-0.58
-0.70,-0.07,-0.58
-0.50,-0.03,-0.63
-0.25,0.03,-0.72
0.17,0.08,-0.84
0.68,0.10,-0.95
1.07,0.10,-1.10
1.33,0.08,-1.22
1.47,0.07,-1.31
1.57,0.07,-1.28
1.62,0.02,-1.27
1.64,0.03,-1.27
1.68,0.02,-1.28
1.66,0.02,-1.23
1.54,0.02,-1.17
1.38,0.03,-1.10
1.23,0.02,-1.04
1.05,0.01,-0.98
0.81,0.01,-0.93
0.54,0.01,-0.88
0.32,-0.00,-0.87
0.11,-0.04,-0.91
-0.19,-0.05,-0.99
-0.51,-0.07,-1.02
-0.78,-0.08,-0.98
-1.00,-0.09,-0.99
-1.20,-0.09,-0.95
-1.42,-0.10,-0.95
-1.58,-0.10,-0.95
-1.60,-0.12,-0.91
-1.45,-0.16,-0.77
-1.25,-0.20,-0.70
-1.12,-0.21,-0.65
-1.04,-0.20,-0.57
-0.93,-0.18,-0.50
-0.75,-0.15,-0.50
-0.54,-0.11,-0.61
-0.38,-0.07,-0.68
-0.30,-0.03,-0.72
-0.09,-0.00,-0.64
0.33,0.02,-0.64
0.67,0.03,-0.84
0.89,0.03,-1.12
1.04,0.02,-1.25
1.15,-0.01,-1.20
1.12,-0.05,-1.14
1.05,-0.07,-1.10
0.96,-0.08,-1.09
0.82,-0.08,-1.09
0.73,-0.07,-1.12
0.74,-0.07,-1.07
0.69,-0.05,-1.08
0.56,-0.03,-1.11
0.48,-0.02,-1.09
0.44,-0.03,-1.06
0.38,-0.03,-1.04
0.30,-0.04,-1.01
0.23,-0.05,-0.97
0.16,-0.06,-0.97
0.12,-0.07,-0.96
0.10,-0.08,-0.97
0.13,-0.10,-0.98
0.16,-0.12,-0.95
0.13,-0.12,-0.93
0.11,-0.12,-0.96
0.14,-0.13,-0.97
0.16,-0.13,-0.95
0.16,-0.13,-0.94
0.15,-0.14,-0.94
0.14,-0.14,-0.91
0.15,-0.16,-0.89
0.13,-0.15,-0.90
0.14,-0.14,-0.93
0.16,-0.13,-0.96
0.16,-0.11,-0.99
0.17,-0.10,-1.00
0.17,-0.09,-0.97
0.16,-0.09,-0.96
0.16,-0.09,-0.96
0.19,-0.09,-0.95
0.19,-0.09,-0.95
0.18,-0.07,-0.98
0.20,-0.07,-0.98
0.23,-0.07,-0.96
0.21,-0.07,-0.99
0.21,-0.07,-1.00
0.19,-0.08,-0.97
0.20,-0.09,-0.96
0.20,-0.09,-0.96
0.18,-0.09,-0.96
0.19,-0.10,-0.93
0.18,-0.10,-0.93
0.19,-0.09,-0.98
0.21,-0.10,-0.98
0.22,-0.11,-0.97
0.19,-0.10,-0.97
0.19,-0.11,-0.98
0.19,-0.12,-0.96
0.16,-0.12,-0.93
0.15,-0.12,-0.95
0.18,-0.12,-0.96
0.15,-0.11,-0.97
0.15,-0.10,-0.97
0.17,-0.11,-0.95
0.17,-0.11,-0.95
0.18,-0.11,-0.96
0.19,-0.11,-0.94
0.17,-0.11,-0.93
0.15,-0.11,-0.95
0.17,-0.11,-0.95
0.15,-0.09,-0.96
0.16,-0.09,-0.96
0.18,-0.09,-0.96
0.16,-0.08,-0.95
0.15,-0.08,-0.95
0.16,-0.09,-0.95
0.17,-0.09,-0.96
0.19,-0.09,-0.97
0.18,-0.09,-0.95
0.17,-0.09,-0.95
0.17,-0.10,-0.95
0.18,-0.10,-0.93
0.18,-0.10,-0.94
0.18,-0.10,-0.93
0.19,-0.10,-0.92
0.17,-0.10,-0.97
0.19,-0.10,-0.98
0.19,-0.09,-0.95
0.18,-0.10,-0.94
0.17,-0.09,-0.96
0.19,-0.09,-0.97
0.20,-0.10,-0.95
0.21,-0.11,-0.94
0.21,-0.11,-0.97
0.21,-0.11,-0.96
0.18,-0.10,-0.95
0.17,-0.10,-0.95
0.17,-0.10,-0.95
0.17,-0.09,-0.96
0.15,-0.09,-0.97
0.16,-0.09,-0.98
0.18,-0.09,-0.97
0.16,-0.09,-0.95
0.14,-0.08,-0.96
0.16,-0.07,-0.97
0.19,-0.07,-0.97
0.18,-0.07,-0.96
0.17,-0.05,-0.94
0.21,-0.03,-0.98
0.30,-0.01,-1.00
0.39,0.01,-1.04
0.52,0.03,-1.12
0.67,0.03,-1.16
0.79,0.04,-1.18
0.92,0.05,-1.19
1.06,0.03,-1.23
1.09,0.05,-1.25
1.06,0.05,-1.23
1.02,0.05,-1.25
1.01,0.04,-1.20
0.95,0.01,-1.07
0.82,-0.02,-1.02
0.64,-0.05,-1.02
0.44,-0.05,-0.99
0.30,-0.05,-0.98
0.21,-0.05,-1.01
0.10,-0.06,-0.92
-0.15,-0.05,-0.88
-0.48,-0.06,-0.80
-0.86,-0.09,-0.70
-1.23,-0.11,-0.67
-1.49,-0.13,-0.66
-1.63,-0.16,-0.63
-1.66,-0.19,-0.64
-1.67,-0.21,-0.60
-1.72,-0.22,-0.52
-1.77,-0.19,-0.43
-1.73,-0.17,-0.35
-1.57,-0.14,-0.32
-1.35,-0.09,-0.31
-1.16,-0.05,-0.26
-0.96,0.01,-0.29
-0.65,0.08,-0.48
-0.29,0.14,-0.67
0.10,0.19,-0.80
0.55,0.23,-0.95
1.09,0.26,-1.12
1.70,0.24,-1.25
2.20,0.22,-1.38
2.50,0.13,-1.50
2.58,0.11,-1.60
2.61,0.10,-1.54
2.55,0.11,-1.48
2.39,0.10,-1.43
2.16,0.08,-1.34
1.93,0.10,-1.19
1.70,0.09,-1.04
1.38,0.10,-0.97
1.06,0.09,-0.89
0.67,0.10,-0.82
0.28,0.10,-0.89
-0.11,0.10,-1.01
-0.52,0.07,-1.02
-0.96,0.07,-0.96
-1.41,0.03,-0.86
-1.86,0.01,-0.80
-2.21,-0.02,-0.80
-2.31,-0.06,-0.80
-2.16,-0.11,-0.73
-1.83,-0.17,-0.63
-1.53,-0.20,-0.54
-1.35,-0.19,-0.47
-1.15,-0.18,-0.44
-0.96,-0.16,-0.42
-0.80,-0.11,-0.43
-0.52,-0.05,-0.54
-0.06,-0.01,-0.73
0.47,0.02,-0.87
0.91,0.02,-0.98
1.25,0.02,-1.10
1.55,0.01,-1.19
1.80,-0.01,-1.26
1.96,0.00,-1.30
2.00,-0.09,-1.31
1.92,-0.09,-1.29
1.87,-0.09,-1.19
1.82,-0.11,-1.07
1.58,-0.08,-1.06
1.29,-0.03,-1.04
1.15,-0.02,-1.01
1.04,-0.02,-0.93
0.82,0.01,-0.89
0.62,-0.00,-0.91
0.43,-0.02,-0.96
0.19,-0.04,-0.96
-0.08,-0.06,-0.97
-0.31,-0.09,-0.97
-0.51,-0.14,-0.93
-0.77,-0.18,-0.86
-1.00,-0.19,-0.82
-1.13,-0.20,-0.82
-1.24,-0.20,-0.83
-1.40,-0.20,-0.82
-1.61,-0.20,-0.75
-1.84,-0.17,-0.60
-2.04,-0.16,-0.49
-2.01,-0.10,-0.43
-1.68,-0.08,-0.43
-1.28,-0.06,-0.47
-0.99,-0.01,-0.48
-0.75,0.03,-0.46
-0.49,0.08,-0.50
-0.14,0.12,-0.62
0.26,0.14,-0.81
0.73,0.09,-1.03
1.10,0.10,-1.11
1.33,0.05,-1.18
1.41,-0.03,-1.16
1.35,-0.04,-1.15
1.36,-0.05,-1.19
1.43,-0.08,-1.24
1.46,-0.10,-1.23
1.34,-0.10,-1.23
1.14,-0.09,-1.19
0.96,-0.06,-1.17
0.84,-0.07,-1.12
0.72,-0.06,-1.08
0.58,-0.06,-1.05
0.45,-0.05,-1.05
0.32,-0.05,-1.05
0.20,-0.06,-1.05
0.10,-0.07,-1.04
0.00,-0.07,-1.02
-0.05,-0.09,-0.99
-0.07,-0.12,-0.96
-0.06,-0.14,-0.96
-0.03,-0.17,-0.91
-0.00,-0.19,-0.88
0.02,-0.20,-0.88
0.05,-0.21,-0.87
0.09,-0.22,-0.87
0.10,-0.21,-0.89
0.12,-0.20,-0.91
0.13,-0.20,-0.91
0.14,-0.19,-0.90
0.18,-0.20,-0.91
0.21,-0.19,-0.91
0.18,-0.18,-0.90
0.17,-0.18,-0.88
0.19,-0.18,-0.89
0.23,-0.17,-0.93
0.24,-0.16,-0.94
0.24,-0.15,-0.95
0.24,-0.14,-0.96
0.24,-0.14,-0.96
0.24,-0.13,-0.97
0.21,-0.13,-0.95
0.20,-0.13,-0.93
0.24,-0.15,-0.91
0.25,-0.15,-0.91
0.20,-0.15,-0.95
0.20,-0.14,-0.97
0.24,-0.15,-0.95
0.22,-0.14,-0.97
0.19,-0.14,-0.99
0.22,-0.14,-0.99
0.24,-0.15,-0.99
0.23,-0.15,-0.99
0.20,-0.16,-0.97
0.19,-0.16,-0.94
0.19,-0.17,-0.94
0.18,-0.17,-0.95
0.18,-0.17,-0.94
0.16,-0.16,-0.94
0.18,-0.16,-0.96
0.20,-0.15,-0.98
0.22,-0.15,-0.98
0.21,-0.15,-0.96
0.17,-0.16,-0.95
0.15,-0.16,-0.92
0.16,-0.16,-0.91
0.19,-0.17,-0.91
0.19,-0.16,-0.91
0.19,-0.15,-0.92
0.21,-0.15,-0.92
0.21,-0.14,-0.95
0.22,-0.14,-0.96
0.23,-0.14,-0.93
0.22,-0.13,-0.93
0.21,-0.13,-0.95
0.21,-0.13,-0.93
0.22,-0.14,-0.90
0.21,-0.14,-0.90
0.19,-0.12,-0.94
0.21,-0.12,-0.94
0.28,-0.12,-0.93
0.27,-0.12,-0.96
0.26,-0.12,-0.99
0.27,-0.12,-0.96
0.27,-0.13,-0.93
0.23,-0.12,-0.95
0.24,-0.10,-0.96
0.29,-0.09,-0.96
0.36,-0.07,-1.01
0.44,-0.05,-1.06
0.57,-0.03,-1.13
0.74,-0.02,-1.19
0.88,0.00,-1.24
1.04,0.02,-1.27
1.22,0.04,-1.34
1.37,0.05,-1.43
1.40,0.06,-1.44
1.30,0.08,-1.36
1.18,0.09,-1.28
1.06,0.10,-1.27
0.95,0.10,-1.22
0.78,0.11,-1.21
0.64,0.09,-1.18
0.46,0.06,-1.05
0.16,0.01,-0.92
-0.14,-0.05,-0.80
-0.46,-0.12,-0.64
-0.89,-0.14,-0.52
-1.34,-0.13,-0.43
-1.75,-0.11,-0.28
-2.18,-0.12,-0.17
-2.61,-0.10,-0.09
-2.87,-0.08,-0.03
-2.83,-0.06,0.01
-2.47,-0.05,0.09
-1.93,-0.06,0.16
-1.51,-0.07,0.20
-1.26,-0.05,0.25
-1.10,0.01,0.17
-0.87,0.13,-0.18
-0.35,0.22,-0.61
0.36,0.27,-1.00
1.07,0.27,-1.33
1.70,0.20,-1.55
2.14,0.13,-1.71
2.41,0.07,-1.86
2.51,0.02,-1.90
2.48,-0.01,-1.87
2.43,-0.02,-1.82
2.40,-0.07,-1.72
2.22,-0.00,-1.61
2.05,0.02,-1.45
1.88,0.04,-1.30
1.59,0.08,-1.22
1.29,0.09,-1.11
1.05,0.09,-0.93
0.69,0.09,-0.89
0.41,0.09,-0.92
0.20,0.04,-0.88
-0.09,0.04,-0.83
-0.44,0.02,-0.81
-0.83,-0.01,-0.79
-1.21,-0.04,-0.77
-1.49,-0.08,-0.74
-1.72,-0.11,-0.68
-1.92,-0.13,-0.61
-2.09,-0.13,-0.57
-2.18,-0.12,-0.52
-2.11,-0.13,-0.41
-1.93,-0.12,-0.30
-1.65,-0.12,-0.30
-1.38,-0.12,-0.29
-1.13,-0.11,-0.24
-0.87,-0.10,-0.30
-0.58,-0.06,-0.44
-0.18,0.00,-0.65
0.40,0.06,-0.92
1.05,0.03,-1.11
1.57,-0.02,-1.21
1.90,-0.08,-1.31
2.04,-0.13,-1.45
2.11,-0.13,-1.55
2.19,-0.15,-1.58
2.27,-0.12,-1.54
2.26,-0.19,-1.47
2.09,-0.19,-1.35
1.87,-0.10,-1.25
1.66,-0.14,-1.09
1.29,-0.10,-0.99
1.00,-0.04,-1.01
0.80,-0.02,-0.95
0.52,-0.01,-0.93
0.18,0.00,-1.00
-0.17,-0.01,-1.00
-0.52,-0.03,-0.98
-0.82,-0.06,-0.92
-1.05,-0.09,-0.83
-1.27,-0.11,-0.70
-1.55,-0.11,-0.58
-1.83,-0.11,-0.52
-2.04,-0.12,-0.48
-2.13,-0.14,-0.44
-2.04,-0.14,-0.38
-1.77,-0.16,-0.29
-1.51,-0.17,-0.23
-1.34,-0.13,-0.25
-1.15,-0.12,-0.27
-1.08,-0.09,-0.28
-1.09,-0.04,-0.27
-1.02,0.04,-0.27
-0.88,0.15,-0.30
-0.65,0.35,-0.41
-0.16,0.56,-0.72
0.62,0.69,-1.15
1.54,0.69,-1.52
2.32,0.47,-1.71
2.66,0.32,-1.64
2.41,0.09,-1.46
1.60,0.12,-1.30
1.06,0.14,-1.30
1.10,0.07,-1.35
1.32,0.02,-1.35
1.34,-0.00,-1.28
1.23,-0.00,-1.21
1.02,0.01,-1.20
0.80,0.03,-1.20
0.63,0.04,-1.16
0.55,0.05,-1.11
0.49,0.04,-1.06
0.38,0.03,-1.06
0.23,0.02,-1.02
0.11,-0.01,-0.96
0.01,-0.03,-0.97
-0.07,-0.06,-0.97
-0.11,-0.08,-0.97
-0.10,-0.11,-0.96
-0.05,-0.14,-0.91
-0.01,-0.17,-0.88
-0.02,-0.18,-0.87
-0.04,-0.19,-0.84
-0.03,-0.20,-0.83
-0.02,-0.20,-0.84
0.03,-0.19,-0.86
0.07,-0.18,-0.86
0.10,-0.17,-0.90
0.14,-0.17,-0.91
0.13,-0.15,-0.90
0.13,-0.14,-0.93
0.20,-0.14,-0.94
0.22,-0.14,-0.93
0.22,-0.13,-0.92
0.19,-0.12,-0.93
0.18,-0.12,-0.95
0.21,-0.11,-0.95
0.20,-0.10,-0.95
0.20,-0.08,-0.99
0.26,-0.08,-1.00
0.28,-0.09,-0.97
0.27,-0.09,-0.98
0.28,-0.10,-0.99
0.26,-0.10,-0.98
0.24,-0.11,-0.95
0.23,-0.11,-0.93
0.20,-0.11,-0.95
0.18,-0.11,-0.95
0.18,-0.11,-0.93
0.19,-0.11,-0.94
0.21,-0.12,-0.96
0.21,-0.13,-0.94
0.17,-0.12,-0.91
0.19,-0.12,-0.94
0.26,-0.13,-0.96
0.24,-0.12,-0.96
0.21,-0.12,-0.97
0.20,-0.12,-0.95
0.19,-0.12,-0.92
0.17,-0.11,-0.92
0.21,-0.11,-0.94
0.27,-0.11,-0.95
0.27,-0.11,-0.96
0.25,-0.10,-0.96
0.24,-0.10,-0.97
0.25,-0.10,-0.96
0.24,-0.09,-0.95
0.22,-0.09,-0.94
0.23,-0.09,-0.93
0.24,-0.08,-0.95
0.23,-0.07,-0.99
0.24,-0.08,-0.99
0.24,-0.08,-0.97
0.21,-0.08,-0.95
0.19,-0.08,-0.95
0.21,-0.09,-0.94
0.24,-0.10,-0.93
0.22,-0.10,-0.94
0.21,-0.09,-0.96
0.20,-0.09,-0.96
0.22,-0.09,-0.95
0.23,-0.09,-0.97
0.23,-0.10,-0.98
0.19,-0.11,-0.94
0.18,-0.12,-0.93
0.20,-0.12,-0.93
0.18,-0.12,-0.95
0.17,-0.11,-0.93
0.16,-0.10,-0.92
0.16,-0.09,-0.92
0.18,-0.08,-0.94
0.20,-0.06,-0.93
0.23,-0.04,-0.93
0.32,-0.02,-0.98
0.46,-0.01,-1.03
0.56,0.00,-1.04
0.73,0.04,-1.13
1.01,0.06,-1.25
1.27,0.08,-1.30
1.41,0.14,-1.36
1.52,0.15,-1.40
1.54,0.18,-1.43
1.49,0.19,-1.38
1.33,0.20,-1.27
1.16,0.19,-1.26
1.07,0.18,-1.25
0.92,0.18,-1.13
0.74,0.18,-1.04
0.55,0.13,-0.91
0.20,0.09,-0.78
-0.24,0.07,-0.69
-0.69,0.03,-0.67
-1.13,0.01,-0.62
-1.55,-0.02,-0.45
-2.05,-0.06,-0.28
-2.54,-0.06,-0.16
-2.95,-0.05,-0.04
-3.21,-0.02,-0.02
-3.21,0.05,0.03
-2.85,0.08,0.19
-2.28,0.12,0.18
-1.72,0.15,0.09
-1.27,0.17,0.04
-0.94,0.23,-0.12
-0.53,0.32,-0.40
0.12,0.42,-0.79
1.05,0.50,-1.30
2.06,0.42,-1.68
2.82,0.27,-1.87
3.22,0.13,-1.91
3.20,0.03,-1.94
2.94,0.03,-1.95
2.76,0.07,-1.89
2.71,-0.04,-1.75
2.51,-0.03,-1.58
2.24,0.01,-1.38
1.91,0.11,-1.21
1.49,0.07,-1.12
1.04,0.15,-1.09
0.74,0.16,-1.04
0.42,0.17,-0.99
0.02,0.17,-0.90
-0.52,0.20,-0.83
-1.11,0.24,-0.70
-1.76,0.25,-0.49
-2.50,0.21,-0.26
-3.22,0.21,-0.14
-3.60,0.26,-0.18
-3.28,0.26,-0.11
-2.47,0.13,0.01
-1.89,0.06,0.01
-1.65,0.05,0.05
-1.45,0.05,0.09
-1.11,0.06,-0.00
-0.70,0.10,-0.20
-0.27,0.13,-0.44
0.25,0.22,-0.71
0.91,0.25,-1.04
1.65,0.19,-1.41
2.29,0.10,-1.62
2.74,-0.00,-1.81
2.96,-0.06,-1.91
2.91,-0.08,-1.92
2.68,-0.08,-1.86
2.40,-0.05,-1.74
2.21,-0.11,-1.59
1.99,-0.06,-1.46
1.78,-0.03,-1.28
1.54,-0.00,-1.03
1.09,0.02,-1.01
0.65,0.12,-1.07
0.35,0.15,-1.07
0.09,0.14,-0.99
-0.26,0.12,-0.88
-0.69,0.11,-0.72
-1.20,0.09,-0.52
-1.81,0.10,-0.36
-2.43,0.13,-0.21
-2.97,0.16,-0.09
-3.20,0.17,-0.10
-3.01,0.15,-0.10
-2.51,0.10,0.03
-2.02,0.07,0.11
-1.69,0.07,0.08
-1.40,0.10,0.08
-1.12,0.11,0.12
-0.80,0.15,-0.02
-0.39,0.23,-0.35
0.15,0.30,-0.72
0.73,0.29,-1.06
1.25,0.25,-1.31
1.67,0.18,-1.48
2.07,0.12,-1.64
2.36,0.01,-1.79
2.43,-0.04,-1.87
2.36,-0.04,-1.91
2.29,-0.02,-1.90
2.21,-0.05,-1.89
2.11,-0.03,-1.72
1.91,-0.03,-1.50
1.52,-0.03,-1.33
1.10,0.03,-1.29
0.88,0.05,-1.26
0.77,0.07,-1.16
0.66,0.09,-1.10
0.49,0.11,-1.10
0.31,0.10,-1.00
0.07,0.05,-0.97
-0.21,0.04,-0.87
-0.45,-0.01,-0.76
-0.66,-0.07,-0.65
-0.83,-0.13,-0.59
-0.92,-0.18,-0.58
-0.93,-0.26,-0.55
-0.90,-0.33,-0.47
-0.91,-0.36,-0.34
-1.03,-0.38,-0.23
-1.25,-0.36,-0.20
-1.47,-0.34,-0.17
-1.64,-0.33,-0.12
-1.76,-0.30,-0.07
-1.77,-0.24,-0.04
-1.65,-0.22,-0.05
-1.52,-0.19,-0.08
-1.43,-0.13,-0.09
-1.31,-0.04,-0.14
-1.02,0.07,-0.35
-0.56,0.15,-0.65
-0.03,0.17,-0.91
0.56,0.20,-1.08
1.06,0.14,-1.21
1.44,0.07,-1.34
1.57,-0.01,-1.45
1.49,-0.05,-1.55
1.33,-0.08,-1.54
1.17,-0.11,-1.47
1.09,-0.14,-1.39
1.03,-0.17,-1.41
1.01,-0.14,-1.38
0.99,-0.15,-1.31
0.86,-0.12,-1.29
0.68,-0.10,-1.32
0.56,-0.10,-1.26
0.51,-0.12,-1.16
0.39,-0.13,-1.10
0.27,-0.13,-1.06
0.18,-0.15,-0.96
0.08,-0.17,-0.89
-0.03,-0.18,-0.92
-0.12,-0.19,-0.95
-0.15,-0.21,-0.91
-0.15,-0.23,-0.84
-0.15,-0.24,-0.84
-0.11,-0.25,-0.88
-0.06,-0.26,-0.85
-0.09,-0.28,-0.78
-0.11,-0.28,-0.78
-0.01,-0.28,-0.83
0.08,-0.29,-0.87
0.07,-0.29,-0.87
0.06,-0.27,-0.87
0.10,-0.26,-0.91
0.12,-0.26,-0.93
0.12,-0.25,-0.92
0.13,-0.23,-0.92
0.15,-0.23,-0.96
0.16,-0.22,-0.97
0.15,-0.24,-0.91
0.10,-0.22,-0.91
0.12,-0.22,-0.96
0.16,-0.21,-0.97
0.18,-0.21,-0.98
0.19,-0.20,-0.99
0.18,-0.20,-0.99
0.16,-0.20,-0.98
0.18,-0.21,-0.98
0.19,-0.22,-0.96
0.16,-0.22,-0.98
0.18,-0.22,-0.95
0.18,-0.23,-0.93
0.14,-0.23,-0.95
0.13,-0.23,-0.95
0.16,-0.23,-0.93
0.19,-0.23,-0.94
0.19,-0.23,-0.97
0.19,-0.22,-0.98
0.21,-0.22,-0.98
0.19,-0.23,-0.96
0.13,-0.23,-0.93
0.09,-0.24,-0.90
0.08,-0.24,-0.92
0.11,-0.24,-0.95
0.11,-0.23,-0.93
0.09,-0.22,-0.93
0.10,-0.21,-0.95
0.11,-0.20,-0.95
0.13,-0.20,-0.95
0.15,-0.21,-0.95
0.13,-0.21,-0.94
0.12,-0.22,-0.92
0.11,-0.22,-0.89
0.11,-0.22,-0.91
0.14,-0.22,-0.94
0.17,-0.21,-0.93
0.17,-0.22,-0.93
0.15,-0.20,-0.95
0.15,-0.19,-0.98
0.18,-0.20,-0.98
0.15,-0.20,-0.94
0.12,-0.20,-0.93
0.13,-0.21,-0.93
0.16,-0.22,-0.93
0.17,-0.22,-0.94
0.18,-0.22,-0.93
0.16,-0.22,-0.94
0.17,-0.21,-0.96
0.20,-0.22,-0.97
0.19,-0.22,-0.95
0.14,-0.21,-0.94
0.14,-0.21,-0.94
0.15,-0.22,-0.93
0.14,-0.22,-0.92
0.11,-0.21,-0.94
0.13,-0.21,-0.94
0.16,-0.21,-0.93
0.14,-0.21,-0.93
0.12,-0.19,-0.93
0.13,-0.19,-0.92
0.18,-0.17,-0.95
0.25,-0.16,-1.01
0.38,-0.14,-1.11
0.56,-0.11,-1.28
0.77,-0.08,-1.42
0.94,-0.06,-1.53
1.02,-0.05,-1.55
1.01,-0.04,-1.44
1.01,-0.05,-1.24
1.05,-0.06,-1.18
1.05,-0.05,-1.22
0.99,-0.04,-1.23
0.93,-0.03,-1.18
0.88,-0.06,-1.07
0.89,-0.09,-0.92
0.78,-0.10,-0.84
0.53,-0.06,-0.85
0.35,-0.11,-0.79
0.10,-0.14,-0.67
-0.27,-0.14,-0.62
-0.60,-0.15,-0.63
-0.82,-0.17,-0.58
-1.03,-0.19,-0.46
-1.34,-0.18,-0.33
-1.76,-0.16,-0.21
-2.20,-0.08,-0.10
-2.62,-0.03,-0.03
-3.02,0.04,-0.08
-3.25,0.15,-0.08
-3.04,0.22,0.15
-2.45,0.22,0.34
-1.85,0.24,0.31
-1.46,0.33,0.11
-1.07,0.37,-0.16
-0.59,0.46,-0.56
0.02,0.54,-0.83
0.75,0.62,-1.19
1.63,0.61,-1.69
2.52,0.54,-2.12
3.23,0.35,-2.36
3.55,0.21,-2.34
3.44,0.12,-2.17
3.02,0.08,-2.00
2.60,0.07,-1.86
2.35,0.08,-1.68
2.26,0.08,-1.51
2.10,0.11,-1.39
1.79,0.17,-1.30
1.46,0.21,-1.20
1.12,0.22,-1.06
0.79,0.23,-0.98
0.47,0.23,-0.90
0.18,0.16,-0.70
-0.16,0.18,-0.78
-0.50,0.17,-0.70
-0.89,0.11,-0.53
-1.39,0.08,-0.33
-2.07,0.05,-0.15
-2.79,0.07,-0.03
-3.35,0.13,-0.07
-3.31,0.17,-0.04
-2.57,0.10,0.05
-1.73,0.00,0.05
-1.42,-0.00,-0.03
-1.37,0.02,-0.03
-1.24,0.03,-0.04
-1.01,0.06,-0.20
-0.69,0.09,-0.46
-0.26,0.14,-0.69
0.36,0.26,-1.03
1.18,0.26,-1.41
2.07,0.19,-1.61
2.81,0.07,-1.86
3.12,-0.05,-2.07
2.95,-0.08,-2.15
2.52,-0.05,-2.07
2.19,-0.07,-1.90
2.06,-0.06,-1.66
2.02,-0.08,-1.48
1.84,-0.05,-1.40
1.47,0.02,-1.36
1.10,0.05,-1.26
0.77,0.10,-1.14
0.52,0.09,-1.03
0.26,0.08,-1.02
0.02,0.07,-1.00
-0.15,-0.02,-0.82
-0.46,-0.01,-0.74
-0.83,-0.00,-0.63
-1.26,0.01,-0.48
-1.74,-0.06,-0.28
-2.34,-0.05,-0.14
-2.85,0.03,-0.17
-2.98,0.07,-0.15
-2.64,0.07,-0.00
-2.07,0.01,0.10
-1.66,0.01,0.03
-1.44,0.06,-0.02
-1.27,0.06,0.02
-1.07,0.11,-0.08
-0.73,0.15,-0.33
-0.26,0.24,-0.61
0.42,0.28,-0.94
1.22,0.26,-1.36
1.94,0.15,-1.63
2.44,0.01,-1.82
2.61,-0.06,-2.01
2.54,-0.08,-2.09
2.43,-0.09,-2.05
2.29,-0.09,-1.96
2.20,-0.09,-1.77
2.09,-0.06,-1.65
1.93,-0.01,-1.62
1.69,0.05,-1.60
1.43,0.10,-1.47
1.18,0.13,-1.29
0.93,0.15,-1.16
0.72,0.08,-1.03
0.38,0.13,-1.03
0.07,0.13,-0.97
-0.16,0.10,-0.85
-0.40,0.05,-0.62
-0.72,-0.01,-0.53
-1.10,-0.02,-0.34
-1.46,-0.08,-0.17
-1.82,-0.11,-0.02
-2.16,-0.10,-0.05
-2.30,-0.06,-0.17
-2.17,-0.05,-0.22
-1.90,-0.08,-0.15
-1.77,-0.08,-0.07
-1.74,-0.06,-0.03
-1.66,-0.05,-0.04
-1.56,-0.04,-0.11
-1.43,0.00,-0.20
-1.22,0.01,-0.26
-1.04,0.06,-0.35
-0.71,0.26,-0.54
-0.05,0.40,-0.89
0.77,0.38,-1.24
1.36,0.26,-1.49
1.60,0.16,-1.56
1.64,0.14,-1.58
1.68,0.11,-1.62
1.82,0.07,-1.66
2.03,-0.02,-1.66
1.99,-0.12,-1.62
1.70,-0.12,-1.41
1.36,-0.13,-1.27
1.15,-0.10,-1.27
1.00,-0.10,-1.29
0.82,-0.08,-1.25
0.67,-0.07,-1.16
0.56,-0.08,-1.08
0.42,-0.07,-1.03
0.24,-0.07,-1.00
0.05,-0.09,-0.97
-0.15,-0.10,-0.91
-0.33,-0.13,-0.86
-0.47,-0.15,-0.88
-0.54,-0.18,-0.87
-0.54,-0.21,-0.81
-0.48,-0.23,-0.83
-0.38,-0.25,-0.82
-0.33,-0.30,-0.75
-0.30,-0.30,-0.73
-0.25,-0.31,-0.76
-0.17,-0.32,-0.78
-0.14,-0.32,-0.79
-0.10,-0.30,-0.79
-0.00,-0.29,-0.82
0.09,-0.29,-0.87
0.13,-0.27,-0.90
0.17,-0.27,-0.91
0.20,-0.26,-0.88
0.21,-0.25,-0.90
0.21,-0.25,-0.95
0.21,-0.24,-0.95
0.20,-0.25,-0.93
0.17,-0.24,-0.94
0.18,-0.23,-0.97
0.21,-0.23,-0.99
0.21,-0.21,-1.01
0.22,-0.20,-1.02
0.24,-0.20,-1.01
0.24,-0.21,-1.00
0.20,-0.21,-1.01
0.15,-0.21,-1.01
0.15,-0.22,-0.99
0.14,-0.23,-0.98
0.10,-0.23,-0.97
0.09,-0.22,-0.97
0.12,-0.23,-0.96
0.12,-0.23,-0.95
0.11,-0.22,-0.96
0.13,-0.24,-0.94
0.14,-0.24,-0.94
0.13,-0.25,-0.95
0.12,-0.26,-0.93
0.09,-0.26,-0.92
0.08,-0.26,-0.93
0.07,-0.25,-0.91
0.06,-0.25,-0.90
0.07,-0.25,-0.93
0.09,-0.24,-0.94
0.12,-0.24,-0.94
0.14,-0.24,-0.92
0.09,-0.23,-0.93
0.09,-0.23,-0.93
0.13,-0.24,-0.91
0.11,-0.24,-0.91
0.06,-0.23,-0.91
0.07,-0.23,-0.91
0.09,-0.23,-0.94
0.12,-0.22,-0.95
0.14,-0.22,-0.97
0.16,-0.22,-0.96
0.16,-0.22,-0.97
0.16,-0.22,-0.98
0.15,-0.22,-0.96
0.13,-0.23,-0.93
0.12,-0.23,-0.94
0.09,-0.23,-0.94
0.07,-0.23,-0.93
0.09,-0.22,-0.95
0.13,-0.22,-0.97
0.17,-0.23,-0.97
0.14,-0.22,-0.97
0.12,-0.23,-0.95
0.13,-0.24,-0.94
0.13,-0.24,-0.93
0.14,-0.25,-0.90
0.14,-0.25,-0.90
0.14,-0.24,-0.92
0.15,-0.23,-0.94
0.14,-0.23,-0.92
0.07,-0.20,-0.96
0.09,-0.21,-1.02
0.12,-0.22,-0.99
0.04,-0.20,-0.91
-0.01,-0.19,-0.89
-0.03,-0.19,-0.87
-0.04,-0.18,-0.85
0.01,-0.17,-0.85
0.11,-0.17,-0.88
0.24,-0.15,-0.98
0.46,-0.12,-1.09
0.74,-0.11,-1.26
0.98,-0.10,-1.35
1.22,-0.08,-1.41
1.43,-0.10,-1.43
1.50,-0.11,-1.44
1.45,-0.11,-1.38
1.30,-0.10,-1.32
1.11,-0.09,-1.22
0.92,-0.10,-1.12
0.77,-0.10,-1.07
0.61,-0.09,-1.02
0.43,-0.12,-0.87
0.12,-0.12,-0.87
-0.20,-0.10,-0.80
-0.49,-0.13,-0.70
-0.89,-0.14,-0.56
-1.45,-0.12,-0.43
-2.05,-0.10,-0.31
-2.58,-0.03,-0.24
-2.85,0.02,-0.19
-2.75,0.06,-0.17
-2.35,0.05,-0.14
-1.80,0.04,-0.16
-1.36,0.04,-0.17
-1.07,0.05,-0.19
-0.80,0.04,-0.19
-0.49,0.05,-0.30
-0.04,0.08,-0.61
0.57,0.09,-1.00
1.23,0.07,-1.35
1.84,0.00,-1.59
2.26,-0.12,-1.70
2.42,-0.20,-1.76
2.32,-0.25,-1.76
2.12,-0.25,-1.70
1.96,-0.25,-1.62
1.88,-0.28,-1.49
1.63,-0.19,-1.46
1.36,-0.14,-1.33
1.16,-0.15,-1.17
0.85,-0.06,-1.13
0.47,-0.03,-1.05
0.12,-0.02,-0.99
-0.24,-0.02,-0.90
-0.67,-0.03,-0.82
-1.11,-0.05,-0.68
-1.56,-0.07,-0.54
-1.93,-0.05,-0.43
-2.21,-0.06,-0.32
-2.35,-0.04,-0.26
-2.23,-0.03,-0.23
-1.87,-0.06,-0.19
-1.44,-0.07,-0.20
-1.15,-0.05,-0.21
-0.96,-0.03,-0.23
-0.72,-0.04,-0.28
-0.41,-0.03,-0.42
0.01,0.00,-0.67
0.57,0.05,-1.04
1.24,0.04,-1.40
1.88,-0.03,-1.62
2.33,-0.12,-1.78
2.46,-0.18,-1.84
2.29,-0.20,-1.85
2.00,-0.19,-1.79
1.82,-0.24,-1.65
1.65,-0.17,-1.50
1.58,-0.14,-1.41
1.35,-0.12,-1.34
1.02,-0.05,-1.28
0.72,-0.04,-1.15
0.43,-0.05,-0.98
0.07,-0.01,-1.00
-0.30,0.01,-0.96
-0.66,0.01,-0.92
-1.01,-0.02,-0.84
-1.39,-0.07,-0.67
-1.79,-0.10,-0.50
-2.10,-0.12,-0.36
-2.21,-0.12,-0.27
-2.10,-0.14,-0.18
-1.81,-0.17,-0.11
-1.52,-0.18,-0.08
-1.30,-0.12,-0.13
-1.00,-0.11,-0.21
-0.71,-0.12,-0.25
-0.56,-0.11,-0.28
-0.37,-0.06,-0.44
-0.01,-0.03,-0.70
0.47,-0.02,-0.94
0.97,-0.02,-1.18
1.41,-0.05,-1.37
1.78,-0.09,-1.50
2.06,-0.12,-1.63
2.21,-0.15,-1.74
2.23,-0.14,-1.80
2.17,-0.15,-1.80
1.97,-0.17,-1.66
1.69,-0.11,-1.48
1.40,-0.07,-1.44
1.15,-0.03,-1.39
0.93,0.01,-1.35
0.73,0.06,-1.27
0.53,0.08,-1.22
0.31,0.08,-1.19
-0.01,0.14,-1.13
-0.37,0.08,-1.04
-0.69,0.05,-0.87
-0.91,-0.02,-0.76
-1.07,-0.09,-0.65
-1.21,-0.14,-0.50
-1.36,-0.20,-0.39
-1.55,-0.22,-0.32
-1.72,-0.24,-0.27
-1.80,-0.22,-0.20
-1.79,-0.23,-0.13
-1.73,-0.25,-0.05
-1.62,-0.23,-0.04
-1.44,-0.23,-0.08
-1.22,-0.19,-0.19
-0.96,-0.15,-0.32
-0.66,-0.09,-0.51
-0.33,-0.07,-0.69
-0.01,-0.06,-0.81
0.26,-0.06,-0.89
0.49,-0.07,-0.94
0.69,-0.09,-0.99
0.83,-0.10,-1.07
0.92,-0.06,-1.25
1.09,-0.04,-1.45
1.27,-0.08,-1.54
1.36,-0.10,-1.56
1.34,-0.11,-1.49
1.14,-0.19,-1.40
0.83,-0.14,-1.17
0.65,-0.13,-1.10
0.64,-0.16,-1.13
0.57,-0.16,-1.10
0.44,-0.14,-1.06
0.34,-0.16,-1.02
0.28,-0.15,-0.99
0.23,-0.14,-0.99
0.13,-0.14,-1.01
0.07,-0.16,-1.02
0.05,-0.17,-0.98
0.01,-0.19,-0.93
-0.03,-0.21,-0.90
-0.06,-0.23,-0.87
-0.06,-0.23,-0.88
-0.02,-0.24,-0.90
0.03,-0.25,-0.90
0.06,-0.25,-0.90
0.09,-0.25,-0.91
0.12,-0.25,-0.92
0.14,-0.25,-0.94
0.14,-0.25,-0.95
0.11,-0.25,-0.94
0.09,-0.24,-0.94
0.10,-0.24,-0.92
0.09,-0.23,-0.93
0.11,-0.22,-0.93
0.16,-0.23,-0.92
0.16,-0.22,-0.95
0.16,-0.21,-0.99
0.18,-0.21,-0.95
0.19,-0.21,-0.92
0.16,-0.20,-0.95
0.14,-0.20,-0.96
0.14,-0.19,-0.94
0.14,-0.19,-0.92
0.14,-0.19,-0.94
0.12,-0.19,-0.96
0.15,-0.20,-0.94
0.16,-0.21,-0.93
0.13,-0.21,-0.95
0.12,-0.21,-0.93
0.12,-0.22,-0.93
0.13,-0.21,-0.96
0.15,-0.22,-0.97
0.13,-0.21,-0.95
0.09,-0.20,-0.95
0.10,-0.20,-0.96
0.11,-0.21,-0.95
0.10,-0.21,-0.95
0.10,-0.22,-0.96
0.11,-0.22,-0.96
0.11,-0.23,-0.93
0.09,-0.22,-0.94
0.09,-0.21,-0.94
0.10,-0.21,-0.97
0.12,-0.20,-0.98
0.14,-0.20,-0.98
0.12,-0.20,-0.98
0.10,-0.19,-0.99
0.11,-0.19,-0.96
0.12,-0.21,-0.94
0.15,-0.21,-0.98
0.15,-0.20,-0.95
0.11,-0.19,-0.92
0.09,-0.19,-0.92
0.13,-0.18,-0.96
0.18,-0.18,-0.99
0.17,-0.18,-0.97
0.14,-0.19,-0.95
0.13,-0.19,-0.94
0.13,-0.19,-0.94
0.12,-0.19,-0.94
0.15,-0.19,-0.94
0.20,-0.20,-0.91
0.17,-0.20,-0.92
0.12,-0.19,-0.94
0.13,-0.19,-0.93
0.19,-0.20,-0.92
0.20,-0.21,-0.93
0.15,-0.21,-0.92
0.13,-0.21,-0.91
0.14,-0.21,-0.92
0.14,-0.21,-0.92
0.14,-0.21,-0.92
0.14,-0.19,-0.91
0.17,-0.18,-0.91
0.21,-0.17,-0.94
0.24,-0.16,-0.97
0.25,-0.16,-0.97
0.27,-0.15,-1.00
0.35,-0.13,-1.07
0.49,-0.12,-1.15
0.63,-0.09,-1.23
0.80,-0.07,-1.34
1.00,-0.06,-1.42
1.08,-0.06,-1.42
1.02,-0.04,-1.35
0.92,-0.01,-1.30
0.86,-0.02,-1.25
0.81,-0.02,-1.22
0.72,-0.02,-1.17
0.59,0.01,-1.12
0.42,0.01,-1.11
0.22,-0.03,-1.04
-0.06,-0.05,-1.04
-0.34,-0.07,-0.94
-0.57,-0.10,-0.85
-0.77,-0.14,-0.73
-0.97,-0.16,-0.64
-1.17,-0.17,-0.61
-1.44,-0.18,-0.52
-1.81,-0.17,-0.37
-2.20,-0.16,-0.19
-2.47,-0.15,-0.02
-2.55,-0.13,0.08
-2.40,-0.09,0.13
-2.04,-0.06,0.14
-1.64,-0.01,0.09
-1.37,0.00,0.08
-1.25,0.13,-0.03
-1.03,0.25,-0.27
-0.55,0.41,-0.62
0.16,0.55,-0.99
0.95,0.64,-1.28
1.85,0.65,-1.57
2.66,0.51,-1.85
3.15,0.34,-2.02
3.24,0.22,-2.04
2.98,0.17,-1.97
2.49,0.16,-1.88
2.07,0.15,-1.82
1.67,0.12,-1.54
1.42,0.20,-1.21
1.44,0.17,-1.32
1.49,0.14,-1.48
1.31,0.10,-1.35
0.90,0.12,-1.18
0.58,0.06,-0.86
0.32,-0.07,-0.77
-0.12,0.05,-1.03
-0.43,0.00,-0.75
-0.82,0.04,-0.56
-1.30,0.02,-0.34
-1.88,0.03,-0.39
-2.41,0.04,-0.39
-2.73,0.08,-0.48
-2.72,0.06,-0.47
-2.35,0.01,-0.36
-1.84,-0.06,-0.19
-1.49,-0.10,-0.13
-1.36,-0.09,-0.16
-1.27,-0.06,-0.17
-1.12,-0.01,-0.20
-0.80,0.04,-0.34
-0.33,0.12,-0.57
0.26,0.18,-0.87
0.90,0.22,-1.14
1.51,0.18,-1.41
2.06,0.14,-1.69
2.50,0.09,-1.95
2.73,0.05,-2.08
2.75,-0.04,-2.06
2.59,-0.02,-1.92
2.31,-0.16,-1.83
1.86,-0.05,-1.45
1.58,-0.05,-1.33
1.39,-0.13,-1.28
1.17,-0.01,-1.19
0.96,-0.05,-1.12
0.79,-0.08,-1.11
0.48,-0.01,-1.19
0.14,0.02,-0.97
-0.24,0.01,-0.76
-0.61,0.02,-0.69
-1.00,0.04,-0.62
-1.40,0.02,-0.51
-1.93,0.02,-0.40
-2.51,0.06,-0.36
-2.96,0.11,-0.36
-3.04,0.12,-0.27
-2.66,0.12,-0.06
-1.99,0.04,0.10
-1.45,0.01,0.06
-1.17,0.03,-0.08
-0.90,0.06,-0.25
-0.47,0.08,-0.42
0.03,0.09,-0.62
0.59,0.08,-0.82
1.15,0.07,-1.07
1.75,0.07,-1.42
2.35,-0.03,-1.71
2.74,-0.15,-1.89
2.81,-0.23,-1.97
2.54,-0.27,-1.92
2.13,-0.22,-1.76
1.77,-0.23,-1.57
1.57,-0.22,-1.50
1.43,-0.23,-1.41
1.00,-0.12,-1.29
0.69,-0.07,-1.10
0.57,-0.14,-1.08
0.30,0.01,-1.31
0.01,-0.02,-1.19
-0.36,-0.00,-0.92
-0.69,-0.02,-0.77
-0.97,-0.05,-0.69
-1.21,-0.06,-0.60
-1.48,-0.04,-0.45
-1.79,-0.10,-0.33
-2.05,-0.12,-0.28
-2.12,-0.10,-0.29
-1.92,-0.12,-0.23
-1.57,-0.17,-0.14
-1.24,-0.20,-0.07
-1.09,-0.20,-0.07
-1.08,-0.17,-0.11
-1.10,-0.13,-0.16
-1.02,-0.07,-0.26
-0.77,-0.02,-0.44
-0.38,0.06,-0.72
0.15,0.10,-0.95
0.64,0.06,-1.12
1.06,0.02,-1.19
1.27,-0.13,-1.18
1.33,-0.11,-1.28
1.26,-0.14,-1.35
1.16,-0.14,-1.46
1.11,-0.14,-1.48
1.06,-0.21,-1.38
0.97,-0.18,-1.13
0.81,-0.20,-1.21
0.78,-0.21,-1.34
0.75,-0.20,-1.33
0.63,-0.15,-1.27
0.50,-0.13,-1.15
0.43,-0.12,-1.10
0.39,-0.12,-1.12
0.34,-0.12,-1.12
0.29,-0.11,-1.11
0.27,-0.14,-1.08
0.24,-0.16,-1.01
0.17,-0.19,-0.95
0.11,-0.20,-0.93
0.08,-0.20,-0.93
0.08,-0.21,-0.93
0.08,-0.22,-0.92
0.05,-0.23,-0.89
-0.00,-0.22,-0.89
-0.00,-0.22,-0.91
0.03,-0.23,-0.91
0.03,-0.23,-0.88
0.01,-0.23,-0.88
0.06,-0.24,-0.91
0.11,-0.25,-0.91
0.11,-0.25,-0.91
0.11,-0.24,-0.90
0.12,-0.24,-0.89
0.14,-0.23,-0.90
0.15,-0.22,-0.91
0.17,-0.21,-0.93
0.17,-0.21,-0.95
0.15,-0.21,-0.94
0.14,-0.19,-0.96
0.19,-0.19,-0.99
0.22,-0.20,-0.99
0.18,-0.20,-0.96
0.12,-0.19,-0.95
0.13,-0.19,-0.95
0.19,-0.20,-0.95
0.21,-0.21,-0.95
0.17,-0.20,-0.95
0.12,-0.19,-0.97
0.15,-0.20,-0.98
0.18,-0.21,-0.97
0.15,-0.20,-0.96
0.13,-0.19,-0.97
0.16,-0.20,-0.98
0.16,-0.21,-0.96
0.13,-0.21,-0.93
0.11,-0.21,-0.93
0.12,-0.21,-0.96
0.12,-0.21,-0.94
0.10,-0.20,-0.94
0.12,-0.20,-0.95
0.14,-0.21,-0.93
0.12,-0.20,-0.93
0.12,-0.20,-0.93
0.15,-0.20,-0.92
0.15,-0.20,-0.92
0.15,-0.20,-0.92
0.16,-0.20,-0.91
0.15,-0.20,-0.91
0.13,-0.19,-0.92
0.14,-0.19,-0.92
0.15,-0.18,-0.93
0.17,-0.18,-0.95
0.16,-0.18,-0.96
0.16,-0.18,-0.96
0.16,-0.19,-0.95
0.16,-0.19,-0.94
0.15,-0.18,-0.94
0.16,-0.18,-0.95
0.18,-0.18,-0.96
0.19,-0.18,-0.96
0.18,-0.18,-0.94
0.15,-0.18,-0.94
0.13,-0.18,-0.96
0.13,-0.17,-0.96
0.12,-0.17,-0.95
0.10,-0.17,-0.95
0.12,-0.16,-0.96
0.14,-0.16,-0.96
0.17,-0.16,-0.95
0.20,-0.16,-0.96
0.21,-0.16,-0.96
0.20,-0.16,-0.94
0.15,-0.14,-0.92
0.15,-0.12,-0.95
0.25,-0.11,-1.01
0.37,-0.08,-1.07
0.50,-0.04,-1.13
0.69,-0.01,-1.24
0.94,0.02,-1.36
1.23,0.05,-1.49
1.48,0.07,-1.60
1.62,0.05,-1.56
1.55,0.06,-1.48
1.35,0.08,-1.40
1.17,0.08,-1.29
1.05,0.06,-1.20
0.93,0.04,-1.14
0.79,0.05,-1.17
0.64,0.12,-1.05
0.39,0.10,-0.93
0.06,0.08,-0.76
-0.34,0.04,-0.67
-0.75,0.06,-0.45
-1.14,0.08,-0.32
-1.57,0.06,-0.26
-2.10,0.06,-0.24
-2.66,0.06,-0.20
-3.10,0.10,-0.15
-3.16,0.13,0.03
-2.74,0.10,0.26
-1.99,0.07,0.36
-1.40,0.02,0.26
-1.14,0.03,0.03
-1.00,0.13,-0.24
-0.73,0.25,-0.52
-0.20,0.39,-0.84
0.57,0.57,-1.16
1.52,0.59,-1.57
2.54,0.46,-2.02
3.24,0.25,-2.28
3.41,0.03,-2.22
3.02,-0.06,-1.82
2.23,0.10,-1.67
1.85,0.08,-1.91
1.87,0.13,-1.88
2.02,0.12,-1.89
2.06,0.05,-1.71
1.82,0.10,-1.54
1.36,0.16,-1.29
0.91,0.06,-1.08
0.49,0.08,-0.80
0.17,0.02,-0.59
-0.04,0.05,-0.72
-0.24,0.11,-0.71
-0.52,0.10,-0.61
-0.92,0.16,-0.33
-1.41,0.25,-0.14
-2.02,0.29,-0.11
-2.68,0.27,-0.13
-3.24,0.26,-0.17
-3.49,0.27,-0.12
-3.23,0.31,0.04
-2.44,0.27,0.16
-1.58,0.18,0.00
-1.10,0.14,-0.23
-0.89,0.20,-0.42
-0.62,0.28,-0.62
-0.13,0.36,-0.80
0.46,0.36,-0.93
1.01,0.31,-1.16
1.51,0.31,-1.36
2.06,0.34,-1.72
2.58,0.26,-2.12
2.92,0.11,-2.37
2.92,-0.01,-2.32
2.56,-0.15,-2.13
1.86,-0.04,-1.55
1.18,-0.03,-1.21
0.90,-0.00,-1.40
1.08,-0.01,-1.70
1.27,-0.03,-1.63
1.30,-0.05,-1.40
1.19,-0.05,-1.12
0.86,-0.02,-0.96
0.44,-0.01,-0.87
0.04,-0.08,-0.81
-0.34,-0.05,-0.68
-0.67,0.04,-0.63
-0.87,-0.03,-0.39
-1.16,-0.04,-0.50
-1.47,-0.05,-0.30
-1.82,-0.03,-0.21
-2.22,-0.01,-0.18
-2.57,0.01,-0.18
-2.75,0.10,-0.10
-2.61,0.13,-0.02
-2.07,0.14,-0.05
-1.40,0.15,-0.19
-0.88,0.14,-0.41
-0.42,0.18,-0.63
0.06,0.32,-0.75
0.59,0.25,-0.89
1.12,0.19,-1.17
1.59,0.05,-1.31
1.86,-0.06,-1.47
1.94,-0.10,-1.57
1.88,-0.21,-1.63
1.71,-0.25,-1.44
1.36,-0.21,-1.28
1.06,-0.24,-1.28
0.93,-0.23,-1.29
0.84,-0.23,-1.26
0.64,-0.20,-1.17
0.41,-0.17,-1.08
0.24,-0.14,-1.06
0.15,-0.11,-1.09
0.10,-0.10,-1.10
0.06,-0.10,-1.08
0.04,-0.11,-1.04
-0.01,-0.14,-1.02
-0.08,-0.17,-0.96
-0.15,-0.20,-0.88
-0.17,-0.23,-0.81
-0.15,-0.26,-0.79
-0.11,-0.27,-0.81
-0.01,-0.28,-0.87
0.09,-0.29,-0.88
0.13,-0.27,-0.89
0.18,-0.26,-0.96
0.28,-0.28,-1.00
0.29,-0.29,-0.98
0.21,-0.28,-0.92
0.09,-0.27,-0.90
0.05,-0.26,-0.92
0.10,-0.25,-0.95
0.15,-0.24,-0.98
0.18,-0.24,-0.95
0.16,-0.23,-0.94
0.14,-0.22,-0.95
0.14,-0.21,-0.95
0.17,-0.22,-0.93
0.19,-0.22,-0.91
0.18,-0.21,-0.91
0.19,-0.21,-0.94
0.22,-0.22,-0.96
0.22,-0.23,-0.93
0.19,-0.23,-0.90
0.16,-0.25,-0.88
0.13,-0.25,-0.89
0.13,-0.24,-0.93
0.15,-0.24,-0.95
0.18,-0.23,-0.96
0.19,-0.23,-0.95
0.17,-0.23,-0.95
0.14,-0.23,-0.95
0.13,-0.23,-0.94
0.12,-0.23,-0.93
0.16,-0.24,-0.93
0.17,-0.25,-0.92
0.13,-0.24,-0.90
0.10,-0.24,-0.91
0.12,-0.24,-0.92
0.15,-0.24,-0.93
0.20,-0.24,-0.95
0.22,-0.25,-0.95
0.18,-0.25,-0.92
0.15,-0.24,-0.91
0.14,-0.24,-0.93
0.12,-0.24,-0.92
0.11,-0.24,-0.90
0.12,-0.23,-0.90
0.14,-0.23,-0.92
0.15,-0.23,-0.93
0.18,-0.22,-0.95
0.20,-0.22,-0.96
0.20,-0.22,-0.96
0.21,-0.22,-0.95
0.21,-0.23,-0.93
0.17,-0.23,-0.92
0.14,-0.23,-0.92
0.14,-0.23,-0.93
0.14,-0.23,-0.92
0.13,-0.23,-0.91
0.14,-0.23,-0.92
0.16,-0.24,-0.93
0.18,-0.23,-0.97
0.21,-0.21,-1.00
0.22,-0.20,-1.05
0.20,-0.21,-1.00
0.25,-0.22,-0.98
0.26,-0.23,-0.94
0.24,-0.22,-0.95
0.20,-0.20,-0.98
0.21,-0.20,-0.97
0.26,-0.19,-1.00
0.31,-0.18,-1.04
0.34,-0.15,-1.12
0.46,-0.12,-1.25
0.66,-0.09,-1.39
0.93,-0.06,-1.56
1.23,-0.01,-1.72
1.42,-0.04,-1.74
1.37,-0.05,-1.62
1.10,-0.06,-1.38
0.85,-0.06,-1.21
0.80,-0.18,-1.09
0.58,-0.19,-1.00
0.44,-0.23,-0.80
0.25,-0.27,-0.68
0.11,-0.39,-0.47
-0.14,-0.32,-0.50
-0.45,-0.27,-0.28
-0.77,-0.21,-0.08
-1.12,-0.18,-0.04
-1.50,-0.11,-0.06
-1.90,-0.07,0.03
-2.36,-0.04,0.05
-2.73,-0.03,-0.02
-2.79,0.09,-0.06
-2.45,0.15,0.03
-1.87,0.16,0.12
-1.39,0.16,0.01
-1.10,0.23,-0.12
-0.83,0.44,-0.37
-0.28,0.59,-0.77
0.58,0.72,-1.23
1.53,0.74,-1.64
2.48,0.64,-2.16
3.16,0.42,-2.40
3.43,0.23,-2.34
3.33,0.18,-2.16
2.98,0.05,-2.10
2.35,0.14,-1.92
1.79,0.15,-1.73
1.49,0.11,-1.65
1.45,0.05,-1.57
1.37,-0.03,-1.39
1.07,0.07,-1.10
0.58,0.05,-1.00
0.23,0.07,-0.81
-0.04,0.05,-0.69
-0.23,0.04,-0.76
-0.48,0.05,-0.70
-0.80,0.05,-0.60
-1.17,0.09,-0.34
-1.63,0.13,-0.13
-2.22,0.17,-0.11
-2.82,0.18,-0.18
-3.24,0.23,-0.23
-3.27,0.25,-0.17
-2.82,0.26,0.02
-2.03,0.20,0.07
-1.38,0.15,-0.12
-1.03,0.18,-0.31
-0.78,0.25,-0.52
-0.41,0.32,-0.70
0.17,0.47,-0.90
0.95,0.56,-1.19
1.89,0.55,-1.70
2.74,0.41,-2.12
3.23,0.20,-2.33
3.32,0.07,-2.32
3.03,0.07,-2.20
2.48,0.03,-1.99
1.91,0.07,-1.64
1.56,0.07,-1.55
1.50,0.05,-1.51
1.52,0.00,-1.45
1.37,0.04,-1.36
1.01,0.05,-1.04
0.61,0.07,-0.81
0.24,0.04,-0.68
-0.06,0.12,-0.75
-0.33,0.11,-0.59
-0.66,0.06,-0.58
-1.06,0.07,-0.35
-1.55,0.14,-0.26
-2.06,0.17,-0.29
-2.51,0.22,-0.37
-2.83,0.19,-0.35
-2.94,0.20,-0.25
-2.74,0.18,-0.10
-2.19,0.16,0.02
-1.60,0.10,-0.02
-1.25,0.09,-0.09
-1.10,0.13,-0.21
-0.88,0.22,-0.37
-0.45,0.31,-0.60
0.16,0.34,-0.86
0.77,0.38,-1.10
1.34,0.29,-1.35
1.77,0.26,-1.63
2.11,0.34,-1.92
2.48,0.39,-2.24
2.90,0.25,-2.52
3.15,0.17,-2.33
2.97,0.04,-2.11
2.42,0.03,-1.84
1.71,0.16,-1.76
1.14,0.17,-1.60
0.91,0.12,-1.43
0.92,0.13,-1.29
1.04,0.08,-1.15
0.99,0.10,-1.10
0.68,0.13,-0.88
0.15,0.07,-0.73
-0.39,0.18,-0.50
-0.88,0.21,-0.39
-1.23,0.04,-0.21
-1.52,0.15,-0.60
-1.64,0.15,-0.54
-1.65,0.11,-0.52
-1.64,0.04,-0.44
-1.73,-0.01,-0.24
-1.93,-0.10,-0.02
-2.17,-0.06,0.10
-2.24,-0.06,0.10
-2.00,-0.08,0.05
-1.54,-0.13,-0.03
-1.17,-0.15,-0.12
-1.02,-0.14,-0.18
-0.89,0.04,-0.33
-0.44,0.29,-0.71
0.32,0.35,-1.22
1.06,0.31,-1.68
1.72,0.12,-1.78
2.07,-0.04,-1.88
2.13,-0.09,-1.86
1.98,-0.14,-1.88
1.70,-0.17,-1.70
1.33,-0.23,-1.64
1.11,-0.26,-1.51
0.90,-0.30,-1.35
0.65,-0.28,-1.22
0.47,-0.26,-1.12
0.32,-0.23,-1.08
0.22,-0.21,-1.02
0.11,-0.21,-1.01
0.02,-0.19,-1.01
-0.01,-0.20,-1.03
-0.02,-0.22,-0.96
-0.08,-0.24,-0.85
-0.19,-0.26,-0.77
-0.31,-0.28,-0.72
-0.39,-0.30,-0.69
-0.44,-0.34,-0.66
-0.52,-0.35,-0.69
-0.47,-0.37,-0.65
-0.37,-0.38,-0.65
-0.25,-0.38,-0.71
-0.11,-0.37,-0.79
-0.01,-0.37,-0.85
0.08,-0.36,-0.91
0.15,-0.37,-0.93
0.15,-0.37,-0.91
0.15,-0.37,-0.91
0.13,-0.38,-0.87
0.08,-0.37,-0.88
0.07,-0.35,-0.93
0.11,-0.36,-0.94
0.14,-0.35,-0.90
0.19,-0.35,-0.92
0.19,-0.32,-0.99
0.15,-0.28,-1.03
0.17,-0.30,-1.00
0.17,-0.30,-0.95
0.14,-0.29,-0.93
0.11,-0.29,-0.94
0.13,-0.29,-0.95
0.16,-0.31,-0.94
0.13,-0.30,-0.94
0.10,-0.29,-0.95
0.11,-0.31,-0.95
0.13,-0.32,-0.95
0.10,-0.32,-0.95
0.07,-0.31,-0.95
0.06,-0.34,-0.90
0.07,-0.34,-0.92
0.08,-0.32,-0.95
0.08,-0.32,-0.96
0.10,-0.33,-0.93
0.10,-0.33,-0.91
0.07,-0.33,-0.91
0.04,-0.31,-0.93
0.07,-0.34,-0.91
0.07,-0.33,-0.90
0.04,-0.31,-0.90
0.02,-0.31,-0.89
0.03,-0.31,-0.91
0.07,-0.31,-0.92
0.10,-0.32,-0.91
0.10,-0.31,-0.90
0.07,-0.30,-0.91
0.08,-0.30,-0.91
0.11,-0.31,-0.90
0.10,-0.31,-0.90
0.08,-0.29,-0.92
0.10,-0.31,-0.91
0.10,-0.31,-0.91
0.10,-0.30,-0.92
0.11,-0.30,-0.92
0.11,-0.30,-0.93
0.12,-0.29,-0.95
0.16,-0.30,-0.96
0.14,-0.30,-0.94
0.08,-0.30,-0.92
0.06,-0.30,-0.91
0.08,-0.30,-0.92
0.10,-0.30,-0.93
0.08,-0.30,-0.92
0.10,-0.31,-0.90
0.11,-0.31,-0.91
0.09,-0.30,-0.92
0.06,-0.30,-0.92
0.05,-0.29,-0.94
0.10,-0.27,-1.00
0.23,-0.24,-1.10
0.44,-0.22,-1.27
0.62,-0.18,-1.47
0.79,-0.17,-1.62
0.91,-0.17,-1.67
0.87,-0.17,-1.60
0.78,-0.15,-1.61
0.77,-0.16,-1.51
0.84,-0.20,-1.36
0.87,-0.23,-1.26
0.77,-0.25,-1.04
0.46,-0.27,-0.82
0.12,-0.29,-0.69
-0.08,-0.36,-0.59
-0.28,-0.31,-0.63
-0.45,-0.33,-0.41
-0.67,-0.33,-0.21
-0.90,-0.30,-0.16
-1.11,-0.26,-0.16
-1.33,-0.23,-0.10
-1.56,-0.21,-0.03
-1.86,-0.19,0.00
-2.14,-0.18,-0.02
-2.26,-0.11,-0.03
-2.16,-0.07,0.04
-1.81,-0.05,0.06
-1.35,-0.05,-0.01
-1.04,-0.05,-0.04
-0.95,0.07,-0.13
-0.74,0.28,-0.43
-0.19,0.52,-0.91
0.65,0.74,-1.46
1.64,0.78,-2.03
2.63,0.60,-2.53
3.26,0.31,-2.72
3.43,0.14,-2.46
3.11,0.02,-2.17
2.34,0.08,-1.68
1.60,0.05,-1.61
1.38,0.02,-1.73
1.46,-0.03,-1.64
1.49,-0.04,-1.38
1.42,0.01,-1.15
1.22,-0.01,-1.14
0.82,0.02,-1.04
0.35,0.02,-0.84
-0.09,0.12,-0.71
-0.37,0.09,-0.39
-0.61,0.04,-0.44
-0.89,0.11,-0.34
-1.18,0.08,-0.25
-1.57,0.17,-0.45
-1.95,0.18,-0.51
-2.27,0.21,-0.43
-2.52,0.20,-0.27
-2.67,0.17,-0.12
-2.59,0.18,0.03
-2.24,0.13,0.18
-1.70,0.06,0.13
-1.29,-0.03,0.05
-1.13,-0.00,-0.12
-1.04,0.14,-0.31
-0.65,0.35,-0.85
0.09,0.49,-1.36
1.09,0.56,-1.89
2.12,0.51,-2.35
2.83,0.28,-2.87
3.19,0.03,-2.99
3.18,-0.25,-2.88
2.66,-0.16,-2.39
1.79,-0.06,-1.77
1.20,-0.09,-1.64
1.06,-0.14,-1.67
1.00,-0.16,-1.52
0.82,-0.21,-1.16
0.51,-0.21,-1.00
0.19,-0.17,-0.91
-0.10,-0.10,-0.89
-0.30,-0.09,-0.76
-0.44,0.00,-0.72
-0.59,-0.00,-0.45
-0.87,-0.09,-0.40
-1.28,-0.04,-0.19
-1.75,0.03,-0.19
-2.16,0.06,-0.30
-2.43,0.08,-0.37
-2.47,0.11,-0.33
-2.30,0.11,-0.13
-1.93,0.04,0.03
-1.56,0.05,0.01
-1.29,0.04,0.01
-1.08,0.15,-0.07
-0.70,0.28,-0.31
-0.04,0.42,-0.82
0.71,0.49,-1.23
1.58,0.36,-1.61
2.35,0.21,-1.92
2.78,0.02,-2.21
2.92,-0.22,-2.31
2.71,-0.13,-2.21
2.22,-0.07,-1.96
1.78,-0.11,-1.88
1.57,-0.12,-1.76
1.40,-0.13,-1.57
1.22,-0.14,-1.39
0.99,-0.13,-1.23
0.69,-0.09,-1.11
0.41,-0.06,-1.05
0.18,-0.09,-0.99
-0.01,-0.07,-0.84
-0.07,-0.06,-0.72
-0.10,-0.05,-0.79
-0.16,-0.20,-0.58
-0.45,-0.14,-0.75
-0.77,-0.15,-0.51
-1.10,-0.17,-0.37
-1.44,-0.13,-0.35
-1.70,-0.16,-0.35
-1.81,-0.19,-0.32
-1.77,-0.21,-0.27
-1.62,-0.25,-0.19
-1.47,-0.26,-0.12
-1.40,-0.24,-0.11
-1.40,-0.22,-0.17
-1.39,-0.17,-0.21
-1.30,-0.13,-0.20
-1.15,-0.07,-0.20
-0.95,0.03,-0.26
-0.66,0.32,-0.39
-0.21,0.47,-0.64
0.49,0.64,-1.25
1.42,0.63,-1.89
2.39,0.55,-2.40
2.94,0.07,-2.73
2.98,-0.12,-2.08
2.21,-0.25,-1.26
1.11,-0.18,-0.95
0.37,-0.12,-1.12
0.10,-0.11,-1.40
0.25,-0.15,-1.41
0.59,-0.25,-1.19
0.74,-0.28,-1.00
0.57,-0.23,-1.00
0.29,-0.15,-1.11
0.09,-0.12,-1.14
0.03,-0.12,-1.10
0.04,-0.14,-1.02
0.04,-0.17,-0.97
-0.01,-0.18,-0.97
-0.07,-0.19,-0.95
-0.16,-0.22,-0.91
-0.21,-0.25,-0.84
-0.24,-0.27,-0.81
-0.23,-0.28,-0.80
-0.17,-0.28,-0.82
-0.07,-0.29,-0.86
0.02,-0.29,-0.89
0.07,-0.30,-0.89
0.09,-0.29,-0.90
0.12,-0.29,-0.92
0.14,-0.30,-0.94
0.13,-0.29,-0.92
0.12,-0.29,-0.91
0.11,-0.28,-0.93
0.09,-0.28,-0.96
0.07,-0.27,-0.94
0.05,-0.26,-0.93
0.07,-0.25,-0.94
0.12,-0.25,-0.97
0.14,-0.24,-0.98
0.14,-0.24,-0.98
0.12,-0.24,-0.98
0.09,-0.24,-0.96
0.05,-0.24,-0.94
0.04,-0.24,-0.94
0.07,-0.24,-0.95
0.10,-0.25,-0.96
0.10,-0.26,-0.95
0.07,-0.26,-0.92
0.06,-0.26,-0.91
0.05,-0.27,-0.91
0.05,-0.25,-0.94
0.08,-0.25,-0.94
0.07,-0.26,-0.94
0.04,-0.26,-0.92
0.03,-0.26,-0.93
0.04,-0.26,-0.92
0.06,-0.27,-0.91
0.06,-0.26,-0.91
0.06,-0.26,-0.93
0.05,-0.26,-0.93
0.04,-0.25,-0.92
0.05,-0.25,-0.93
0.07,-0.25,-0.95
0.09,-0.25,-0.95
0.07,-0.24,-0.94
0.07,-0.24,-0.93
0.08,-0.24,-0.93
0.09,-0.24,-0.93
0.11,-0.21,-0.96
0.12,-0.22,-0.96
0.11,-0.24,-0.94
0.12,-0.23,-0.95
0.13,-0.22,-0.98
0.13,-0.23,-0.96
0.12,-0.20,-0.96
0.12,-0.22,-0.95
0.11,-0.23,-0.95
0.10,-0.24,-0.95
0.08,-0.24,-0.94
0.08,-0.23,-0.93
0.06,-0.22,-0.94
0.05,-0.22,-0.95
0.07,-0.22,-0.97
0.09,-0.23,-0.95
0.11,-0.22,-0.95
0.10,-0.20,-0.98
0.09,-0.22,-0.96
0.08,-0.22,-0.96
0.09,-0.22,-0.94
0.08,-0.21,-0.94
0.07,-0.21,-0.94
0.07,-0.20,-0.96
0.06,-0.18,-1.00
0.09,-0.16,-1.05
0.18,-0.09,-1.17
0.37,-0.03,-1.33
0.66,0.00,-1.62
0.99,0.05,-1.92
1.27,0.08,-2.01
1.44,0.07,-1.95
1.38,0.09,-1.84
1.13,0.10,-1.56
0.84,0.09,-1.33
0.64,0.06,-1.26
0.53,0.08,-1.27
0.28,0.06,-1.09
0.12,-0.06,-0.76
-0.04,-0.03,-0.54
-0.12,-0.11,-0.19
-0.34,-0.19,-0.17
-0.69,-0.15,0.11
-1.12,-0.09,0.29
-1.59,-0.04,0.36
-2.06,-0.04,0.25
-2.54,-0.04,0.17
-2.92,-0.00,0.17
-3.06,0.06,0.27
-2.86,0.14,0.38
-2.27,0.17,0.46
-1.60,0.14,0.34
-1.24,0.17,0.18
-1.05,0.32,-0.02
-0.65,0.60,-0.42
0.14,0.84,-1.09
1.21,0.96,-1.94
2.32,0.82,-2.63
3.13,0.53,-3.11
3.48,0.22,-3.36
3.24,0.07,-3.02
2.40,0.05,-2.35
1.54,0.12,-1.84
1.10,0.13,-1.76
1.16,0.07,-1.80
1.41,0.01,-1.71
1.33,0.00,-1.54
0.97,0.09,-1.40
0.65,0.09,-1.31
0.51,0.01,-1.10
0.32,-0.04,-1.03
0.02,-0.01,-0.71
-0.30,0.04,-0.45
-0.57,0.00,-0.27
-0.79,-0.25,-0.13
-1.15,0.01,-0.43
-1.54,0.01,-0.24
-1.97,0.04,-0.08
-2.29,0.03,-0.03
-2.50,0.05,-0.06
-2.48,0.03,0.02
-2.22,0.03,0.14
-1.83,-0.03,0.17
-1.54,-0.07,0.06
-1.44,-0.07,0.01
-1.40,0.00,-0.02
-1.19,0.14,-0.14
-0.66,0.46,-0.51
0.14,0.57,-0.99
1.19,0.74,-1.72
2.30,0.71,-2.40
3.09,0.49,-2.94
3.53,0.23,-3.26
3.35,-0.16,-2.96
2.40,-0.04,-2.01
1.29,0.01,-1.40
0.75,-0.02,-1.48
0.79,-0.06,-1.75
1.03,-0.09,-1.77
1.14,-0.12,-1.45
0.98,-0.11,-1.17
0.75,-0.17,-0.98
0.43,-0.12,-1.14
0.16,-0.08,-0.94
-0.09,-0.08,-0.70
-0.30,-0.07,-0.52
-0.44,-0.32,-0.16
-0.71,-0.11,-0.51
-1.03,-0.10,-0.28
-1.39,-0.07,-0.12
-1.77,-0.02,-0.20
-2.18,0.01,-0.24
-2.46,0.04,-0.23
-2.53,0.03,-0.14
-2.28,0.06,-0.02
-1.78,0.02,0.04
-1.33,-0.03,-0.00
-1.08,-0.04,-0.06
-0.91,0.01,-0.19
-0.66,0.08,-0.41
-0.19,0.21,-0.74
0.44,0.32,-1.12
1.25,0.36,-1.57
2.16,0.32,-2.09
2.89,0.23,-2.42
3.32,0.01,-2.50
3.26,-0.21,-2.47
2.57,-0.18,-1.89
1.62,-0.11,-1.60
1.19,-0.10,-1.64
1.16,-0.14,-1.77
1.23,-0.16,-1.59
1.17,-0.13,-1.33
1.00,-0.08,-1.21
0.83,0.01,-1.24
0.61,0.06,-1.21
0.35,-0.04,-1.01
0.04,-0.00,-0.78
-0.20,-0.04,-0.58
-0.34,-0.30,-0.47
-0.57,-0.06,-0.72
-0.82,-0.05,-0.48
-1.15,-0.03,-0.20
-1.54,0.03,-0.09
-1.94,0.07,-0.10
-2.32,0.10,-0.20
-2.61,0.15,-0.16
-2.70,0.15,-0.09
-2.49,0.15,0.06
-2.00,0.07,0.14
-1.53,0.03,0.03
-1.28,0.04,-0.05
-1.13,0.13,-0.15
-0.82,0.27,-0.37
-0.25,0.40,-0.64
0.46,0.48,-0.98
1.16,0.45,-1.38
1.89,0.40,-1.77
2.35,0.26,-2.24
2.57,0.05,-2.38
2.49,-0.21,-2.27
1.93,-0.22,-1.80
1.09,-0.14,-1.28
0.55,-0.14,-1.27
0.48,-0.15,-1.44
0.66,-0.20,-1.54
0.74,-0.23,-1.40
0.58,-0.21,-1.19
0.35,-0.17,-1.07
0.17,-0.13,-1.05
0.06,-0.13,-1.06
-0.01,-0.15,-1.05
-0.08,-0.19,-0.99
-0.14,-0.24,-0.89
-0.20,-0.26,-0.76
-0.26,-0.31,-0.68
-0.30,-0.33,-0.65
-0.29,-0.35,-0.66
-0.25,-0.36,-0.67
-0.19,-0.36,-0.68
-0.08,-0.33,-0.76
0.08,-0.32,-0.86
0.23,-0.33,-0.93
0.26,-0.34,-0.93
0.20,-0.33,-0.91
0.15,-0.33,-0.90
0.13,-0.34,-0.92
0.14,-0.34,-0.93
0.13,-0.34,-0.90
0.12,-0.34,-0.84
0.08,-0.33,-0.90
0.07,-0.30,-0.95
0.14,-0.28,-0.98
0.23,-0.27,-1.00
0.27,-0.27,-1.01
0.21,-0.26,-1.01
0.12,-0.26,-1.02
0.09,-0.26,-0.97
0.08,-0.27,-0.94
0.10,-0.27,-0.94
0.12,-0.29,-0.92
0.10,-0.29,-0.92
0.08,-0.28,-0.94
0.09,-0.28,-0.96
0.14,-0.29,-0.95
0.12,-0.28,-0.95
0.07,-0.27,-0.96
0.07,-0.27,-0.97
0.11,-0.29,-0.94
0.10,-0.29,-0.94
0.07,-0.28,-0.95
0.08,-0.29,-0.93
0.08,-0.30,-0.90
0.08,-0.30,-0.91
0.10,-0.31,-0.90
0.11,-0.30,-0.91
0.10,-0.29,-0.92
0.10,-0.29,-0.91
0.10,-0.30,-0.91
0.09,-0.29,-0.92
0.08,-0.28,-0.92
0.09,-0.28,-0.91
0.09,-0.28,-0.90
0.07,-0.27,-0.91
0.08,-0.28,-0.92
0.09,-0.26,-0.95
0.11,-0.26,-0.95
0.11,-0.26,-0.94
0.11,-0.27,-0.93
0.11,-0.26,-0.93
0.11,-0.26,-0.95
0.12,-0.26,-0.95
0.13,-0.26,-0.94
0.15,-0.26,-0.94
0.16,-0.27,-0.95
0.15,-0.27,-0.94
0.13,-0.27,-0.93
0.14,-0.27,-0.91
0.14,-0.27,-0.92
0.13,-0.27,-0.92
0.15,-0.27,-0.93
0.17,-0.27,-0.93
0.16,-0.26,-0.92
0.14,-0.25,-0.93
0.13,-0.26,-0.93
0.15,-0.27,-0.92
0.15,-0.25,-0.92
0.16,-0.25,-0.93
0.19,-0.25,-0.96
0.22,-0.24,-0.97
0.21,-0.23,-0.94
0.19,-0.21,-0.94
0.20,-0.19,-0.99
0.28,-0.18,-1.07
0.42,-0.17,-1.19
0.59,-0.16,-1.29
0.75,-0.15,-1.39
0.93,-0.12,-1.55
1.14,-0.11,-1.65
1.27,-0.12,-1.63
1.24,-0.14,-1.54
1.13,-0.14,-1.44
0.99,-0.09,-1.40
0.89,-0.10,-1.36
0.73,-0.05,-1.24
0.43,-0.05,-1.01
0.14,-0.19,-0.87
-0.12,-0.15,-0.72
-0.34,-0.12,-0.60
-0.43,-0.30,-0.29
-0.66,-0.19,-0.58
-0.95,-0.13,-0.32
-1.29,-0.09,-0.10
-1.70,0.00,-0.04
-2.10,0.05,-0.06
-2.43,0.10,-0.07
-2.73,0.12,-0.13
-2.88,0.21,-0.13
-2.68,0.28,-0.05
-2.15,0.27,0.17
-1.50,0.21,0.20
-1.11,0.17,0.14
-0.94,0.24,-0.00
-0.76,0.37,-0.36
-0.31,0.58,-0.80
0.46,0.82,-1.27
1.51,0.90,-1.93
2.60,0.86,-2.37
3.42,0.52,-2.88
3.82,0.08,-3.02
3.49,-0.07,-2.66
2.54,0.03,-2.09
1.63,0.08,-1.93
1.21,0.09,-1.77
1.15,-0.01,-1.86
1.41,-0.14,-1.77
1.37,-0.14,-1.49
1.01,-0.04,-1.34
0.59,0.02,-1.19
0.31,-0.06,-1.11
0.08,-0.07,-0.92
-0.04,-0.19,-0.68
-0.20,-0.09,-0.64
-0.41,-0.07,-0.40
-0.76,-0.00,-0.23
-1.20,0.03,-0.05
-1.73,0.07,-0.06
-2.37,0.12,-0.15
-2.94,0.22,-0.24
-3.22,0.29,-0.29
-3.00,0.29,-0.08
-2.33,0.24,0.17
-1.57,0.16,0.21
-1.13,0.09,0.11
-1.02,0.09,-0.04
-1.02,0.17,-0.16
-0.79,0.33,-0.44
-0.13,0.50,-0.84
0.78,0.59,-1.20
1.78,0.63,-1.75
2.70,0.55,-2.23
3.33,0.34,-2.65
3.65,0.08,-2.74
3.43,-0.10,-2.43
2.55,-0.07,-1.83
1.64,-0.08,-1.67
1.17,0.00,-1.60
1.08,-0.02,-1.58
1.26,-0.13,-1.57
1.32,-0.16,-1.41
1.04,-0.11,-1.08
0.54,-0.10,-1.06
0.20,-0.03,-0.90
-0.04,0.00,-0.84
-0.15,-0.09,-0.61
-0.33,-0.11,-0.66
-0.59,-0.10,-0.42
-0.95,-0.09,-0.22
-1.40,-0.07,-0.14
-1.85,-0.02,-0.17
-2.24,0.05,-0.33
-2.57,0.07,-0.43
-2.66,0.10,-0.39
-2.37,0.12,-0.21
-1.74,0.06,-0.04
-1.13,-0.03,-0.04
-0.75,-0.08,-0.12
-0.59,-0.10,-0.19
-0.50,-0.06,-0.26
-0.28,0.08,-0.51
0.22,0.18,-0.87
0.81,0.28,-1.26
1.48,0.35,-1.64
2.13,0.40,-2.11
2.60,0.38,-2.43
2.98,0.20,-2.78
3.09,0.19,-2.61
2.81,0.12,-2.10
2.22,0.09,-1.72
1.67,0.11,-1.64
1.28,0.13,-1.76
1.06,0.14,-1.67
0.91,0.13,-1.47
0.80,0.09,-1.21
0.73,0.06,-0.99
0.45,0.06,-0.95
0.18,0.03,-0.76
-0.15,0.07,-0.66
-0.34,-0.12,-0.41
-0.57,0.02,-0.72
-0.79,0.01,-0.50
-1.02,-0.02,-0.33
-1.26,-0.01,-0.23
-1.51,-0.02,-0.30
-1.80,0.04,-0.31
-2.08,0.01,-0.22
-2.32,-0.00,-0.17
-2.42,0.01,-0.15
-2.32,0.02,-0.02
-2.00,-0.04,0.09
-1.56,-0.08,-0.01
-1.22,-0.08,-0.10
-1.03,-0.04,-0.14
-0.81,0.08,-0.28
-0.43,0.23,-0.55
0.16,0.38,-0.89
0.82,0.41,-1.27
1.47,0.35,-1.52
1.94,0.16,-1.73
2.15,0.04,-1.88
2.19,-0.09,-1.85
2.01,-0.22,-1.80
1.56,-0.16,-1.60
1.01,-0.12,-1.31
0.62,-0.18,-1.27
0.53,-0.21,-1.31
0.54,-0.22,-1.28
0.48,-0.21,-1.15
0.35,-0.19,-1.07
0.23,-0.14,-1.06
0.19,-0.12,-1.12
0.22,-0.11,-1.19
0.27,-0.12,-1.19
0.27,-0.16,-1.09
0.20,-0.20,-0.95
0.11,-0.22,-0.84
0.03,-0.24,-0.80
-0.02,-0.27,-0.79
0.00,-0.27,-0.80
0.06,-0.30,-0.79
0.11,-0.32,-0.77
0.16,-0.32,-0.77
0.18,-0.32,-0.81
0.19,-0.31,-0.86
0.19,-0.31,-0.86
0.18,-0.30,-0.85
0.22,-0.29,-0.87
0.24,-0.29,-0.88
0.23,-0.28,-0.90
0.21,-0.27,-0.90
0.22,-0.26,-0.91
0.25,-0.25,-0.93
0.24,-0.24,-0.94
0.22,-0.25,-0.96
0.22,-0.24,-0.95
0.21,-0.23,-0.94
0.20,-0.22,-0.93
0.21,-0.22,-0.92
0.22,-0.22,-0.93
0.21,-0.21,-0.94
0.23,-0.21,-0.98
0.27,-0.23,-0.97
0.27,-0.23,-0.97
0.24,-0.23,-0.95
0.23,-0.23,-0.95
0.25,-0.24,-0.95
0.25,-0.24,-0.94
0.22,-0.23,-0.93
0.21,-0.23,-0.95
0.20,-0.22,-0.96
0.21,-0.22,-0.97
0.22,-0.22,-0.96
0.22,-0.23,-0.95
0.20,-0.22,-0.94
0.19,-0.23,-0.92
0.20,-0.25,-0.91
0.22,-0.25,-0.89
0.20,-0.25,-0.90
0.18,-0.23,-0.90
0.17,-0.23,-0.90
0.17,-0.23,-0.91
0.18,-0.23,-0.91
0.19,-0.23,-0.92
0.21,-0.23,-0.91
0.22,-0.23,-0.91
0.21,-0.23,-0.90
0.20,-0.23,-0.89
0.18,-0.23,-0.89
0.18,-0.22,-0.89
0.17,-0.21,-0.91
0.16,-0.21,-0.92
0.16,-0.21,-0.90
0.15,-0.19,-0.90
0.19,-0.21,-0.92
0.19,-0.21,-0.91
0.18,-0.20,-0.89
0.16,-0.22,-0.85
0.13,-0.21,-0.84
0.12,-0.22,-0.79
0.10,-0.22,-0.77
0.08,-0.20,-0.77
0.11,-0.15,-0.83
0.23,-0.10,-0.95
0.40,-0.04,-1.12
0.61,0.01,-1.28
0.84,0.03,-1.43
1.05,0.05,-1.50
1.17,0.06,-1.50
1.25,0.06,-1.50
1.33,0.07,-1.51
1.39,0.09,-1.55
1.42,0.12,-1.61
1.30,0.12,-1.49
1.07,0.12,-1.31
0.87,0.10,-1.28
0.73,0.06,-1.24
0.58,0.04,-1.16
0.40,-0.02,-0.86
0.16,-0.17,-0.70
-0.11,-0.11,-0.63
-0.22,-0.29,-0.36
-0.42,-0.24,-0.56
-0.66,-0.22,-0.33
-0.95,-0.15,-0.12
-1.30,-0.13,-0.04
-1.71,-0.07,-0.07
-2.13,-0.03,-0.12
-2.47,-0.02,-0.18
-2.66,0.03,-0.12
-2.62,0.09,-0.05
-2.31,0.17,0.13
-1.81,0.13,0.20
-1.37,0.13,0.08
-1.09,0.24,-0.08
-0.83,0.38,-0.23
-0.42,0.58,-0.51
0.26,0.76,-0.93
1.13,0.91,-1.43
2.18,0.95,-2.00
3.02,0.85,-2.54
3.62,0.58,-2.80
3.80,0.21,-2.75
3.29,0.24,-2.18
2.26,0.31,-1.67
1.58,0.33,-1.75
1.47,0.25,-1.98
1.55,0.15,-1.88
1.51,0.10,-1.45
1.29,0.06,-1.14
1.09,0.09,-1.10
0.81,0.05,-1.16
0.56,0.08,-1.01
0.32,0.17,-0.90
0.16,0.04,-0.54
-0.05,-0.02,-0.61
-0.32,-0.05,-0.41
-0.62,-0.04,-0.27
-0.93,-0.03,-0.22
-1.26,-0.03,-0.23
-1.57,-0.02,-0.20
-1.94,-0.01,-0.20
-2.33,-0.00,-0.25
-2.63,0.04,-0.23
-2.72,0.08,-0.13
-2.53,0.10,0.00
-2.03,0.08,0.14
-1.45,0.00,0.12
-1.11,-0.00,0.05
-0.98,0.05,-0.11
-0.86,0.18,-0.34
-0.54,0.41,-0.60
0.10,0.65,-0.91
0.98,0.91,-1.45
2.06,1.01,-2.07
2.99,1.05,-2.59
3.75,0.78,-3.25
3.99,0.41,-3.14
3.59,0.28,-2.55
2.59,0.34,-1.84
1.63,0.42,-1.49
1.13,0.35,-1.63
1.04,0.23,-1.74
1.07,0.11,-1.62
0.98,0.04,-1.25
0.75,0.03,-0.98
0.44,0.00,-0.86
0.23,0.01,-0.89
0.09,-0.05,-0.77
-0.03,-0.14,-0.72
-0.21,-0.17,-0.49
-0.47,-0.18,-0.32
-0.82,-0.17,-0.22
-1.23,-0.14,-0.15
-1.68,-0.13,-0.11
-2.17,-0.05,-0.15
-2.56,0.01,-0.22
-2.72,0.07,-0.19
-2.54,0.07,-0.09
-1.99,0.01,0.12
-1.29,-0.02,0.10
-0.83,-0.12,0.09
-0.72,-0.11,0.02
-0.72,0.03,-0.20
-0.51,0.19,-0.45
-0.06,0.34,-0.76
0.55,0.49,-1.10
1.21,0.56,-1.52
1.81,0.54,-1.80
2.21,0.55,-2.09
2.51,0.60,-2.28
2.77,0.52,-2.48
2.88,0.54,-2.32
2.76,0.51,-2.19
2.51,0.41,-2.06
2.11,0.43,-1.99
1.60,0.44,-1.82
1.20,0.40,-1.55
0.96,0.36,-1.37
0.91,0.33,-1.31
1.04,0.28,-1.30
1.08,0.30,-1.31
0.89,0.36,-1.07
0.64,0.34,-0.94
0.31,0.27,-0.56
-0.10,0.19,-0.37
-0.54,0.14,-0.22
-0.91,0.16,-0.10
-1.24,0.15,-0.10
-1.53,0.14,-0.16
-1.86,0.15,-0.17
-2.22,0.17,-0.14
-2.59,0.17,-0.13
-2.87,0.17,-0.15
-2.93,0.21,-0.06
-2.69,0.22,0.08
-2.16,0.16,0.20
-1.59,0.10,0.14
-1.26,0.10,0.03
-1.05,0.23,-0.16
-0.71,0.36,-0.55
-0.02,0.49,-0.97
0.81,0.58,-1.37
1.75,0.52,-1.74
2.46,0.33,-1.91
2.92,0.05,-2.35
2.94,-0.27,-2.24
2.34,-0.29,-1.95
1.32,-0.19,-1.54
0.67,-0.17,-1.45
0.47,-0.25,-1.46
0.52,-0.26,-1.27
0.62,-0.30,-1.20
0.66,-0.31,-1.16
0.51,-0.26,-1.18
0.28,-0.19,-1.18
0.12,-0.17,-1.10
0.05,-0.16,-1.02
0.03,-0.18,-0.95
0.01,-0.22,-0.89
-0.04,-0.25,-0.86
-0.11,-0.26,-0.84
-0.15,-0.29,-0.77
-0.16,-0.32,-0.72
-0.15,-0.34,-0.69
-0.12,-0.36,-0.69
-0.06,-0.38,-0.67
-0.03,-0.39,-0.70
-0.02,-0.39,-0.74
0.03,-0.38,-0.79
0.13,-0.39,-0.81
0.20,-0.39,-0.84
0.21,-0.37,-0.88
0.23,-0.36,-0.88
0.22,-0.35,-0.91
0.20,-0.34,-0.94
0.19,-0.33,-0.95
0.20,-0.32,-0.93
0.20,-0.32,-0.91
0.16,-0.31,-0.92
0.13,-0.30,-0.95
0.14,-0.30,-0.95
0.13,-0.29,-0.94
0.13,-0.27,-0.95
0.13,-0.27,-0.96
0.16,-0.27,-0.96
0.18,-0.27,-0.97
0.19,-0.28,-0.96
0.20,-0.28,-0.95
0.21,-0.29,-0.95
0.22,-0.30,-0.92
0.17,-0.30,-0.91
0.13,-0.30,-0.92
0.15,-0.29,-0.93
0.18,-0.30,-0.94
0.20,-0.30,-0.95
0.19,-0.30,-0.96
0.19,-0.29,-0.96
0.21,-0.29,-0.96
0.21,-0.30,-0.96
0.18,-0.31,-0.93
0.14,-0.33,-0.87
0.09,-0.31,-0.87
0.07,-0.31,-0.89
0.10,-0.31,-0.88
0.11,-0.31,-0.88
0.10,-0.30,-0.91
0.10,-0.29,-0.92
0.11,-0.29,-0.91
0.12,-0.29,-0.89
0.15,-0.30,-0.89
0.15,-0.28,-0.90
0.14,-0.29,-0.90
0.12,-0.28,-0.89
0.10,-0.28,-0.87
0.11,-0.28,-0.88
0.14,-0.25,-0.90
0.16,-0.26,-0.91
0.16,-0.25,-0.88
0.14,-0.25,-0.85
0.13,-0.24,-0.81
0.15,-0.22,-0.82
0.25,-0.16,-0.93
0.53,-0.09,-1.20
0.96,0.02,-1.56
1.50,0.04,-1.79
1.93,0.07,-1.93
2.06,0.06,-1.86
1.90,0.07,-1.67
1.46,0.12,-1.50
1.06,0.14,-1.42
0.93,0.07,-1.33
0.78,0.07,-1.32
0.70,0.02,-0.99
0.53,0.05,-0.85
0.51,-0.15,-0.68
0.22,-0.02,-0.82
-0.15,-0.02,-0.45
-0.57,-0.01,-0.15
-1.00,0.04,-0.06
-1.44,0.07,-0.10
-1.85,0.13,-0.22
-2.16,0.16,-0.24
-2.40,0.19,-0.23
-2.64,0.21,-0.14
-2.82,0.24,-0.13
-2.85,0.29,-0.06
-2.65,0.30,0.03
-2.20,0.28,0.11
-1.65,0.21,0.11
-1.34,0.23,-0.07
-1.14,0.34,-0.26
-0.84,0.47,-0.68
-0.22,0.66,-1.00
0.58,0.93,-1.36
1.61,1.03,-1.88
2.56,1.10,-2.16
3.44,0.90,-2.87
3.95,0.57,-3.41
3.84,0.22,-3.23
3.15,0.13,-2.48
2.04,0.24,-1.84
1.31,0.19,-1.58
1.06,0.17,-1.67
1.02,0.12,-1.59
1.15,-0.06,-1.41
1.03,-0.01,-1.36
0.66,0.02,-0.93
0.26,0.01,-0.72
0.04,-0.19,-0.57
-0.25,-0.02,-0.92
-0.43,-0.05,-0.65
-0.63,-0.06,-0.41
-0.86,-0.03,-0.24
-1.15,-0.03,-0.23
-1.50,0.01,-0.20
-1.86,0.04,-0.15
-2.24,0.05,-0.17
-2.57,0.10,-0.14
-2.77,0.16,-0.15
-2.74,0.17,-0.05
-2.44,0.18,0.03
-1.87,0.13,0.07
-1.34,0.13,0.07
-1.01,0.25,-0.10
-0.66,0.43,-0.44
-0.08,0.70,-0.88
0.69,0.84,-1.31
1.54,0.95,-1.80
2.29,1.01,-2.26
3.02,1.05,-3.04
3.54,0.82,-3.61
3.63,0.47,-3.52
3.26,0.30,-2.77
2.32,0.28,-1.93
1.32,0.34,-1.45
0.68,0.30,-1.27
0.35,0.15,-1.41
0.35,0.08,-1.46
0.44,-0.01,-1.32
0.42,-0.01,-0.97
0.35,-0.14,-0.75
0.13,-0.03,-0.85
-0.08,-0.08,-0.65
-0.33,-0.10,-0.50
-0.60,-0.13,-0.38
-0.92,-0.13,-0.35
-1.26,-0.08,-0.31
-1.59,-0.06,-0.27
-1.91,-0.02,-0.24
-2.19,0.01,-0.25
-2.39,0.04,-0.24
-2.42,0.03,-0.19
-2.27,0.04,-0.10
-1.91,0.03,-0.01
-1.42,-0.01,0.01
-1.04,-0.04,-0.08
-0.84,-0.07,-0.22
-0.68,0.04,-0.43
-0.34,0.16,-0.71
0.21,0.30,-0.97
0.79,0.30,-1.17
1.27,0.32,-1.23
1.58,0.17,-1.39
1.76,0.25,-1.80
1.91,0.32,-2.13
2.07,0.39,-2.48
2.27,0.37,-2.66
2.38,0.26,-2.65
2.27,0.22,-2.09
1.89,0.16,-1.76
1.46,0.15,-1.62
1.07,0.19,-1.57
0.80,0.20,-1.60
0.69,0.21,-1.52
0.67,0.19,-1.38
0.68,0.08,-1.18
0.44,0.10,-1.13
0.19,0.04,-0.77
-0.14,0.14,-0.72
-0.35,-0.01,-0.33
-0.58,-0.08,-0.67
-0.76,-0.04,-0.56
-0.96,-0.13,-0.38
-1.18,-0.13,-0.33
-1.40,-0.10,-0.33
-1.62,-0.10,-0.34
-1.81,-0.10,-0.25
-1.95,-0.09,-0.23
-2.00,-0.12,-0.18
-1.96,-0.09,-0.13
-1.82,-0.11,-0.07
-1.59,-0.09,-0.06
-1.33,-0.12,-0.05
-1.15,-0.13,-0.07
-1.10,-0.11,-0.11
-1.11,-0.01,-0.13
-1.04,0.20,-0.18
-0.72,0.50,-0.42
-0.08,0.67,-0.94
0.68,0.86,-1.44
1.49,0.86,-1.89
2.10,0.91,-2.51
2.64,0.70,-2.73
2.93,0.06,-2.93
2.74,-0.06,-2.16
1.92,-0.15,-1.28
0.97,-0.09,-0.93
0.35,-0.05,-1.08
0.07,-0.07,-1.35
0.02,-0.09,-1.47
0.11,-0.14,-1.35
0.26,-0.18,-1.16
0.32,-0.19,-1.05
0.25,-0.17,-1.05
0.12,-0.14,-1.10
0.02,-0.13,-1.11
-0.01,-0.16,-1.03
-0.02,-0.19,-0.93
-0.05,-0.23,-0.86
-0.09,-0.26,-0.85
-0.13,-0.28,-0.84
-0.16,-0.30,-0.81
-0.16,-0.32,-0.77
-0.15,-0.33,-0.75
-0.12,-0.33,-0.74
-0.08,-0.32,-0.76
-0.03,-0.31,-0.84
0.03,-0.28,-0.90
0.10,-0.27,-0.97
0.15,-0.28,-0.96
0.17,-0.26,-0.96
0.17,-0.29,-0.95
0.13,-0.28,-0.90
0.09,-0.31,-0.90
0.07,-0.28,-0.93
0.06,-0.28,-0.92
0.05,-0.27,-0.91
0.06,-0.26,-0.92
0.08,-0.24,-0.95
0.11,-0.23,-1.00
0.13,-0.23,-1.01
0.14,-0.24,-1.01
0.13,-0.24,-0.98
0.12,-0.25,-0.97
0.11,-0.26,-0.95
0.10,-0.27,-0.93
0.09,-0.27,-0.94
0.09,-0.27,-0.94
0.09,-0.26,-0.96
0.11,-0.26,-0.98
0.12,-0.26,-0.97
0.11,-0.26,-0.95
0.10,-0.26,-0.94
0.09,-0.28,-0.92
0.07,-0.29,-0.91
0.04,-0.29,-0.89
0.04,-0.30,-0.87
0.04,-0.29,-0.88
0.04,-0.30,-0.88
0.03,-0.28,-0.90
0.04,-0.27,-0.93
0.03,-0.26,-0.94
0.03,-0.25,-0.95
0.04,-0.24,-0.97
0.07,-0.25,-0.96
0.10,-0.26,-0.95
0.11,-0.26,-0.95
0.11,-0.26,-0.93
0.09,-0.26,-0.92
0.08,-0.25,-0.94
0.08,-0.26,-0.95
0.09,-0.26,-0.97
0.10,-0.26,-0.97
0.10,-0.26,-0.97
0.09,-0.25,-0.97
0.07,-0.25,-0.97
0.05,-0.26,-0.98
0.05,-0.27,-0.97
0.04,-0.27,-0.97
0.04,-0.27,-0.96
0.04,-0.28,-0.96
0.04,-0.28,-0.95
0.04,-0.27,-0.97
0.07,-0.27,-0.99
0.09,-0.28,-0.98
0.07,-0.28,-0.96
0.05,-0.28,-0.94
0.04,-0.29,-0.93
0.04,-0.29,-0.92
0.05,-0.29,-0.92
0.06,-0.29,-0.90
0.06,-0.30,-0.90
0.06,-0.29,-0.90
0.07,-0.29,-0.89
0.06,-0.29,-0.89
0.04,-0.29,-0.90
0.01,-0.29,-0.90
-0.01,-0.28,-0.90
-0.02,-0.29,-0.89
-0.01,-0.28,-0.90
0.00,-0.29,-0.90
0.02,-0.28,-0.90
0.03,-0.28,-0.91
0.03,-0.28,-0.91
0.03,-0.28,-0.90
0.03,-0.27,-0.92
0.05,-0.28,-0.93
0.07,-0.28,-0.93
0.08,-0.28,-0.93
0.08,-0.28,-0.92
0.08,-0.28,-0.93
0.08,-0.27,-0.94
