AX,AY,AZ
0.09,-0.27,0.97
0.10,-0.27,0.97
0.09,-0.27,0.97
0.08,-0.27,0.96
0.08,-0.28,0.96
0.09,-0.27,0.98
0.10,-0.27,0.97
0.10,-0.27,0.98
0.09,-0.27,0.98
0.08,-0.27,0.97
0.07,-0.27,0.97
0.08,-0.27,0.96
0.08,-0.27,0.97
0.08,-0.27,0.99
0.09,-0.27,0.99
0.10,-0.27,1.00
0.08,-0.27,1.00
0.06,-0.27,1.00
0.06,-0.27,0.98
0.07,-0.27,1.00
0.08,-0.27,1.02
0.09,-0.27,1.02
0.09,-0.28,1.04
0.08,-0.28,1.06
0.08,-0.28,1.06
0.08,-0.28,1.10
0.07,-0.28,1.14
0.06,-0.27,1.21
0.09,-0.26,1.31
0.15,-0.27,1.34
0.17,-0.25,1.35
0.15,-0.26,1.34
0.11,-0.27,1.33
0.09,-0.28,1.29
0.11,-0.26,1.32
0.15,-0.26,1.36
0.19,-0.26,1.40
0.22,-0.26,1.42
0.22,-0.25,1.41
0.21,-0.25,1.45
0.19,-0.26,1.53
0.18,-0.28,1.64
0.17,-0.29,1.64
0.16,-0.29,1.44
0.21,-0.28,1.27
0.17,-0.30,1.18
0.10,-0.31,1.14
0.07,-0.34,1.18
0.11,-0.37,1.14
0.12,-0.36,1.12
0.15,-0.36,1.03
0.12,-0.38,1.11
0.07,-0.39,1.18
0.08,-0.40,1.06
0.18,-0.42,0.85
0.20,-0.43,0.67
0.17,-0.46,0.58
0.04,-0.47,0.55
-0.08,-0.50,0.72
-0.10,-0.56,0.85
0.03,-0.54,0.70
0.08,-0.54,0.55
0.11,-0.55,0.39
0.03,-0.53,0.40
-0.01,-0.60,0.44
0.01,-0.61,0.48
0.05,-0.62,0.44
-0.01,-0.61,0.38
-0.05,-0.63,0.34
-0.02,-0.64,0.32
0.04,-0.64,0.23
0.02,-0.64,0.11
0.00,-0.64,0.11
-0.00,-0.64,0.12
0.02,-0.65,0.16
0.01,-0.63,0.13
-0.04,-0.64,0.04
-0.05,-0.62,-0.15
-0.04,-0.62,-0.27
-0.13,-0.64,-0.26
-0.16,-0.65,-0.23
-0.12,-0.64,-0.23
-0.11,-0.62,-0.31
-0.08,-0.62,-0.44
-0.05,-0.59,-0.54
-0.11,-0.59,-0.57
-0.19,-0.58,-0.61
-0.23,-0.56,-0.76
-0.29,-0.55,-0.88
-0.38,-0.54,-0.99
-0.35,-0.53,-1.03
-0.34,-0.52,-1.15
-0.38,-0.52,-1.16
-0.35,-0.51,-1.19
-0.34,-0.52,-1.16
-0.42,-0.54,-1.08
-0.44,-0.56,-1.07
-0.43,-0.58,-1.08
-0.45,-0.60,-1.01
-0.45,-0.63,-0.95
-0.43,-0.63,-0.93
-0.41,-0.64,-0.94
-0.40,-0.64,-0.91
-0.41,-0.64,-0.95
-0.37,-0.63,-0.97
-0.34,-0.62,-1.00
-0.35,-0.61,-1.02
-0.37,-0.61,-1.04
-0.37,-0.59,-1.06
-0.36,-0.58,-1.08
-0.35,-0.57,-1.04
-0.36,-0.56,-0.99
-0.34,-0.56,-0.97
-0.32,-0.55,-0.96
-0.34,-0.55,-0.94
-0.32,-0.55,-0.89
-0.32,-0.54,-0.82
-0.31,-0.54,-0.73
-0.26,-0.54,-0.69
-0.18,-0.53,-0.71
-0.15,-0.52,-0.62
-0.19,-0.50,-0.50
-0.22,-0.49,-0.40
-0.19,-0.49,-0.33
-0.17,-0.47,-0.27
-0.11,-0.47,-0.17
-0.02,-0.45,-0.10
0.05,-0.45,-0.01
0.10,-0.45,0.12
0.13,-0.44,0.17
0.07,-0.43,0.32
0.03,-0.44,0.44
-0.10,-0.45,0.52
-0.17,-0.45,0.61
-0.16,-0.46,0.74
-0.02,-0.47,0.81
0.09,-0.48,0.83
0.17,-0.48,0.84
0.28,-0.46,0.83
0.29,-0.46,0.78
0.04,-0.43,0.83
-0.15,-0.43,0.88
-0.19,-0.41,0.91
-0.12,-0.37,0.96
0.07,-0.35,1.04
0.22,-0.34,1.09
0.29,-0.35,1.13
0.29,-0.34,1.11
0.26,-0.33,1.07
0.20,-0.32,1.07
0.12,-0.31,1.08
0.12,-0.30,1.13
0.11,-0.28,1.18
0.15,-0.27,1.23
0.18,-0.26,1.23
0.21,-0.25,1.27
0.24,-0.25,1.24
0.26,-0.25,1.27
0.27,-0.24,1.27
0.24,-0.23,1.26
0.23,-0.22,1.19
0.18,-0.22,1.21
0.15,-0.21,1.21
0.22,-0.20,1.20
0.29,-0.21,1.22
0.33,-0.19,1.21
0.29,-0.21,1.27
0.23,-0.22,1.38
0.17,-0.22,1.35
0.18,-0.21,1.26
0.17,-0.21,1.18
0.15,-0.20,1.17
0.12,-0.19,1.21
0.13,-0.19,1.22
0.14,-0.18,1.20
0.11,-0.16,1.18
-0.05,-0.11,1.56
0.80,-0.03,2.88
0.48,-0.11,1.33
-0.24,-0.16,0.49
-0.23,-0.21,0.62
0.13,-0.20,0.91
0.34,-0.19,0.91
0.14,-0.17,0.89
0.06,-0.18,1.04
0.03,-0.17,1.05
0.01,-0.16,1.10
0.02,-0.16,1.21
0.06,-0.13,1.31
0.13,-0.12,1.39
0.22,-0.13,1.40
0.21,-0.12,1.44
0.23,-0.13,1.50
0.23,-0.11,1.46
0.25,-0.10,1.49
0.27,-0.11,1.56
0.28,-0.12,1.60
0.28,-0.12,1.65
0.29,-0.14,1.69
0.30,-0.14,1.66
0.29,-0.15,1.57
0.26,-0.16,1.44
0.22,-0.17,1.30
0.19,-0.20,1.14
0.08,-0.24,1.11
0.01,-0.25,1.16
0.03,-0.28,1.18
0.13,-0.31,1.18
0.17,-0.32,1.16
0.12,-0.32,1.11
0.09,-0.34,1.03
0.03,-0.34,0.98
0.03,-0.36,0.86
0.10,-0.38,0.76
0.09,-0.40,0.71
-0.00,-0.43,0.77
-0.04,-0.47,0.72
-0.03,-0.48,0.66
-0.03,-0.51,0.66
-0.09,-0.52,0.56
-0.11,-0.53,0.49
-0.10,-0.54,0.53
-0.05,-0.56,0.48
0.01,-0.60,0.49
0.06,-0.62,0.50
-0.00,-0.64,0.48
-0.08,-0.64,0.41
-0.15,-0.66,0.42
-0.11,-0.68,0.40
-0.06,-0.70,0.40
-0.06,-0.71,0.42
-0.08,-0.71,0.36
0.01,-0.73,0.34
-0.03,-0.73,0.24
-0.07,-0.75,0.15
-0.12,-0.76,0.17
-0.12,-0.77,0.13
-0.12,-0.78,0.18
-0.15,-0.80,0.20
-0.11,-0.80,0.18
-0.08,-0.80,0.13
-0.04,-0.80,0.12
-0.03,-0.81,0.12
-0.08,-0.81,0.13
-0.09,-0.82,0.09
-0.05,-0.81,-0.11
-0.08,-0.82,-0.20
-0.11,-0.83,-0.19
-0.13,-0.83,-0.12
-0.07,-0.83,-0.05
0.02,-0.83,-0.11
0.05,-0.82,-0.20
0.06,-0.81,-0.26
-0.01,-0.81,-0.31
-0.06,-0.80,-0.36
-0.09,-0.81,-0.37
-0.12,-0.83,-0.31
-0.06,-0.84,-0.25
-0.04,-0.83,-0.31
-0.03,-0.82,-0.35
-0.03,-0.81,-0.42
-0.01,-0.80,-0.52
-0.04,-0.78,-0.54
-0.12,-0.79,-0.49
-0.13,-0.79,-0.52
-0.11,-0.79,-0.47
-0.10,-0.79,-0.51
-0.13,-0.78,-0.60
-0.14,-0.78,-0.64
-0.16,-0.77,-0.70
-0.12,-0.77,-0.65
-0.08,-0.76,-0.67
-0.06,-0.75,-0.70
-0.08,-0.75,-0.78
-0.21,-0.76,-0.78
-0.30,-0.77,-0.79
-0.29,-0.77,-0.78
-0.27,-0.78,-0.77
-0.27,-0.78,-0.80
-0.27,-0.78,-0.80
-0.28,-0.78,-0.79
-0.29,-0.80,-0.71
-0.27,-0.81,-0.61
-0.20,-0.81,-0.61
-0.17,-0.81,-0.62
-0.16,-0.80,-0.68
-0.18,-0.78,-0.72
-0.21,-0.77,-0.79
-0.25,-0.75,-0.86
-0.23,-0.73,-0.88
-0.18,-0.71,-0.91
-0.14,-0.70,-0.91
-0.10,-0.69,-0.94
-0.09,-0.68,-0.93
-0.12,-0.67,-0.86
-0.13,-0.67,-0.83
-0.12,-0.67,-0.88
-0.14,-0.66,-0.86
-0.17,-0.66,-0.85
-0.21,-0.65,-0.80
-0.24,-0.66,-0.71
-0.19,-0.65,-0.65
-0.13,-0.66,-0.58
-0.07,-0.66,-0.57
-0.01,-0.66,-0.56
0.05,-0.65,-0.60
0.07,-0.63,-0.58
-0.15,-0.61,-0.45
-0.35,-0.62,-0.30
-0.39,-0.63,-0.18
-0.27,-0.64,-0.18
-0.13,-0.63,-0.19
0.01,-0.64,-0.17
0.11,-0.64,-0.06
0.24,-0.64,-0.00
0.33,-0.62,-0.02
0.22,-0.59,0.06
-0.17,-0.60,0.34
-0.40,-0.62,0.53
-0.44,-0.65,0.62
-0.29,-0.66,0.58
-0.12,-0.67,0.49
0.03,-0.66,0.47
0.15,-0.66,0.46
0.23,-0.69,0.46
0.19,-0.64,0.39
-0.17,-0.61,0.45
-0.45,-0.59,0.63
-0.50,-0.58,0.75
-0.32,-0.58,0.85
-0.16,-0.56,0.86
-0.02,-0.57,0.84
0.06,-0.56,0.86
0.14,-0.55,0.88
0.22,-0.55,0.86
0.10,-0.58,0.95
-0.21,-0.48,1.05
-0.33,-0.51,0.99
-0.35,-0.49,1.00
-0.21,-0.49,0.91
-0.13,-0.45,0.90
-0.04,-0.43,1.00
0.03,-0.42,1.12
0.14,-0.41,1.16
0.16,-0.40,1.17
-0.02,-0.39,1.17
-0.13,-0.38,1.17
-0.22,-0.37,1.12
-0.21,-0.38,1.19
-0.13,-0.37,1.16
-0.10,-0.37,1.11
-0.03,-0.37,1.11
-0.00,-0.36,1.11
0.00,-0.34,1.07
0.01,-0.32,1.09
-0.01,-0.30,1.03
-0.03,-0.30,1.13
-0.03,-0.31,1.16
-0.03,-0.31,1.25
-0.02,-0.29,1.22
-0.03,-0.29,1.10
-0.02,-0.27,1.06
-0.01,-0.26,1.09
-0.03,-0.25,1.07
-0.05,-0.24,1.06
-0.10,-0.22,1.08
-0.09,-0.21,1.14
-0.71,-0.37,2.37
0.67,0.13,4.00
0.88,-0.18,1.14
-0.39,-0.20,-0.73
-0.41,-0.27,-0.11
-0.22,-0.31,1.04
0.08,-0.30,1.04
0.15,-0.28,0.76
0.04,-0.26,0.77
-0.09,-0.26,0.85
-0.21,-0.26,1.15
-0.10,-0.24,1.53
-0.08,-0.25,1.27
-0.11,-0.26,0.96
-0.11,-0.27,0.78
-0.11,-0.28,0.82
-0.07,-0.28,0.94
-0.05,-0.27,1.04
-0.08,-0.28,1.05
-0.09,-0.27,1.02
-0.10,-0.27,0.95
-0.11,-0.27,0.94
-0.12,-0.26,0.98
-0.11,-0.27,0.98
-0.12,-0.26,0.97
-0.10,-0.27,0.96
-0.10,-0.27,0.99
-0.11,-0.27,0.98
-0.08,-0.28,1.00
-0.06,-0.27,1.00
-0.06,-0.27,0.96
-0.06,-0.27,0.97
-0.07,-0.26,0.98
-0.05,-0.26,0.97
-0.06,-0.26,1.00
-0.09,-0.26,1.00
-0.08,-0.26,0.96
-0.07,-0.26,0.99
-0.05,-0.25,1.01
-0.05,-0.25,0.99
-0.06,-0.25,0.94
-0.05,-0.25,0.99
-0.05,-0.26,0.99
-0.06,-0.26,1.00
-0.06,-0.26,0.99
-0.07,-0.26,0.99
-0.08,-0.26,0.96
-0.06,-0.26,0.99
-0.08,-0.27,1.00
-0.09,-0.26,0.99
-0.10,-0.26,0.96
-0.11,-0.26,0.98
-0.11,-0.26,0.98
-0.07,-0.26,1.00
-0.05,-0.26,1.00
-0.05,-0.27,0.99
-0.05,-0.26,0.97
-0.07,-0.26,1.00
-0.12,-0.25,1.02
-0.12,-0.25,1.07
-0.10,-0.24,1.14
-0.08,-0.25,1.25
-0.05,-0.25,1.39
-0.07,-0.24,1.43
-0.01,-0.21,1.48
0.08,-0.21,1.56
0.18,-0.21,1.61
0.18,-0.20,1.58
0.14,-0.20,1.54
0.10,-0.19,1.56
0.07,-0.19,1.64
0.09,-0.20,1.68
0.13,-0.20,1.70
0.16,-0.17,1.65
0.16,-0.17,1.63
0.12,-0.17,1.65
0.19,-0.18,1.63
0.23,-0.20,1.62
0.22,-0.20,1.52
0.22,-0.21,1.42
0.15,-0.23,1.40
0.01,-0.22,1.34
0.03,-0.24,1.24
0.09,-0.26,1.19
0.03,-0.25,1.03
-0.01,-0.26,0.86
-0.02,-0.29,0.74
-0.09,-0.30,0.63
-0.11,-0.34,0.48
-0.13,-0.36,0.38
-0.09,-0.39,0.30
-0.06,-0.42,0.20
-0.06,-0.44,0.19
-0.07,-0.49,0.33
-0.08,-0.50,0.29
-0.05,-0.49,0.13
-0.06,-0.52,0.12
-0.16,-0.55,0.15
-0.15,-0.55,0.12
-0.09,-0.56,0.07
-0.08,-0.58,0.00
-0.09,-0.58,-0.15
-0.15,-0.61,-0.21
-0.18,-0.65,-0.09
-0.17,-0.66,-0.13
-0.12,-0.66,-0.18
-0.10,-0.66,-0.18
-0.08,-0.67,-0.14
-0.05,-0.68,-0.15
-0.12,-0.69,-0.23
-0.14,-0.70,-0.36
-0.15,-0.70,-0.34
-0.16,-0.70,-0.36
-0.16,-0.70,-0.29
-0.15,-0.70,-0.22
-0.05,-0.68,-0.29
0.00,-0.67,-0.42
-0.01,-0.65,-0.53
-0.10,-0.64,-0.64
-0.18,-0.64,-0.68
-0.24,-0.64,-0.72
-0.26,-0.62,-0.75
-0.21,-0.61,-0.78
-0.19,-0.58,-0.86
-0.18,-0.57,-0.93
-0.25,-0.56,-1.03
-0.29,-0.56,-1.12
-0.35,-0.56,-1.13
-0.34,-0.56,-1.13
-0.37,-0.57,-1.09
-0.40,-0.58,-0.99
-0.37,-0.59,-1.00
-0.35,-0.60,-1.02
-0.37,-0.60,-1.04
-0.36,-0.59,-1.11
-0.34,-0.58,-1.07
-0.35,-0.59,-1.01
-0.33,-0.59,-1.02
-0.29,-0.61,-1.00
-0.27,-0.61,-0.96
-0.25,-0.62,-0.92
-0.25,-0.63,-0.87
-0.19,-0.63,-0.84
-0.15,-0.62,-0.87
-0.12,-0.62,-0.90
-0.09,-0.60,-0.94
-0.10,-0.60,-0.93
-0.15,-0.60,-0.90
-0.18,-0.60,-0.86
-0.25,-0.61,-0.79
-0.34,-0.63,-0.73
-0.38,-0.64,-0.71
-0.36,-0.65,-0.64
-0.34,-0.65,-0.59
-0.26,-0.64,-0.60
-0.17,-0.63,-0.65
-0.11,-0.60,-0.62
-0.14,-0.57,-0.54
-0.25,-0.57,-0.39
-0.39,-0.57,-0.25
-0.40,-0.57,-0.14
-0.34,-0.57,-0.09
-0.24,-0.56,-0.10
-0.14,-0.55,-0.15
-0.02,-0.53,-0.13
0.13,-0.51,-0.06
0.26,-0.49,0.07
0.23,-0.47,0.22
-0.05,-0.49,0.43
-0.28,-0.53,0.67
-0.37,-0.56,0.71
-0.41,-0.57,0.69
-0.28,-0.55,0.60
-0.18,-0.57,0.56
-0.01,-0.53,0.64
0.07,-0.56,0.67
0.15,-0.55,0.71
0.13,-0.54,0.76
0.02,-0.55,0.81
-0.17,-0.55,0.95
-0.27,-0.56,0.99
-0.31,-0.57,0.97
-0.20,-0.54,0.78
-0.19,-0.58,0.91
-0.03,-0.55,0.77
-0.06,-0.51,0.96
0.08,-0.53,0.96
0.00,-0.52,0.83
-0.24,-0.47,0.94
-0.41,-0.47,1.06
-0.35,-0.46,1.11
-0.19,-0.43,1.08
-0.14,-0.39,1.04
-0.08,-0.37,1.10
0.04,-0.37,1.21
0.16,-0.36,1.31
0.25,-0.37,1.33
0.24,-0.36,1.27
0.12,-0.36,1.26
0.01,-0.35,1.23
-0.10,-0.37,1.21
-0.10,-0.45,1.23
-0.07,-0.35,1.16
-0.04,-0.35,1.20
0.02,-0.35,1.20
0.06,-0.34,1.20
0.07,-0.31,1.10
0.06,-0.30,1.06
0.01,-0.31,1.12
-0.03,-0.26,1.13
-0.15,-0.39,1.65
-0.27,-0.17,3.64
0.74,-0.34,3.30
-0.00,-0.28,0.31
-0.45,-0.30,-0.01
0.03,-0.32,0.62
0.13,-0.29,0.51
0.13,-0.29,0.45
0.09,-0.28,0.62
0.10,-0.29,0.88
-0.02,-0.31,1.18
-0.18,-0.34,1.39
-0.20,-0.33,1.34
-0.14,-0.33,1.14
-0.11,-0.33,0.97
-0.06,-0.32,0.87
0.01,-0.33,0.88
0.01,-0.32,0.91
-0.01,-0.31,0.92
-0.03,-0.31,0.96
-0.06,-0.30,0.99
-0.07,-0.30,1.02
-0.08,-0.30,1.02
-0.08,-0.30,0.94
-0.06,-0.29,0.97
-0.03,-0.30,0.98
-0.02,-0.29,0.92
-0.04,-0.29,0.92
-0.03,-0.30,0.98
-0.03,-0.31,1.01
-0.04,-0.31,1.00
-0.04,-0.31,0.95
-0.02,-0.31,0.96
-0.02,-0.31,0.97
-0.04,-0.31,0.97
-0.02,-0.31,0.98
-0.02,-0.30,0.95
-0.05,-0.32,0.96
-0.04,-0.31,0.96
0.00,-0.31,0.96
0.00,-0.31,1.00
-0.01,-0.31,0.99
-0.02,-0.31,0.98
-0.02,-0.31,0.98
-0.04,-0.31,0.93
-0.04,-0.30,0.96
-0.03,-0.30,0.97
-0.05,-0.31,0.98
-0.06,-0.30,0.99
-0.04,-0.30,0.99
-0.03,-0.30,0.98
-0.00,-0.30,0.94
-0.01,-0.31,0.93
-0.03,-0.31,0.99
-0.04,-0.31,0.98
-0.06,-0.30,0.97
-0.08,-0.31,0.99
-0.05,-0.31,0.98
-0.04,-0.31,0.95
-0.03,-0.31,0.94
-0.02,-0.32,0.99
-0.03,-0.31,0.97
-0.04,-0.31,0.97
-0.04,-0.31,1.01
-0.04,-0.30,1.01
-0.03,-0.30,1.01
-0.05,-0.30,1.03
-0.07,-0.29,1.04
-0.02,-0.30,1.07
0.02,-0.30,1.14
0.03,-0.30,1.23
-0.02,-0.30,1.35
-0.05,-0.28,1.47
-0.07,-0.28,1.58
-0.06,-0.30,1.74
0.03,-0.31,1.85
0.12,-0.32,1.90
0.17,-0.27,1.80
0.28,-0.44,1.83
0.14,-0.29,1.61
0.13,-0.32,1.54
0.08,-0.32,1.56
0.05,-0.32,1.49
0.11,-0.33,1.44
0.13,-0.34,1.39
0.09,-0.35,1.35
0.01,-0.35,1.30
-0.05,-0.36,1.39
-0.06,-0.38,1.35
0.03,-0.39,1.23
0.12,-0.38,1.07
0.10,-0.39,0.92
0.04,-0.40,0.80
0.04,-0.41,0.74
0.11,-0.42,0.77
0.08,-0.44,0.87
0.01,-0.43,0.78
-0.14,-0.43,0.74
-0.13,-0.43,0.68
-0.04,-0.41,0.48
-0.02,-0.43,0.35
-0.01,-0.44,0.38
-0.03,-0.45,0.50
-0.02,-0.47,0.45
0.04,-0.46,0.29
0.09,-0.46,0.21
0.09,-0.48,0.19
0.14,-0.46,0.09
0.13,-0.45,0.03
0.04,-0.45,0.01
-0.09,-0.45,-0.04
-0.16,-0.47,-0.00
-0.10,-0.46,-0.07
0.02,-0.42,-0.28
0.10,-0.41,-0.50
0.05,-0.41,-0.63
-0.09,-0.43,-0.56
-0.10,-0.42,-0.60
-0.11,-0.44,-0.70
-0.15,-0.43,-0.78
-0.23,-0.44,-0.81
-0.27,-0.43,-0.93
-0.24,-0.42,-1.10
-0.27,-0.40,-1.14
-0.37,-0.41,-1.17
-0.40,-0.39,-1.26
-0.40,-0.38,-1.39
-0.42,-0.41,-1.43
-0.45,-0.43,-1.39
-0.46,-0.45,-1.32
-0.46,-0.49,-1.25
-0.46,-0.52,-1.16
-0.44,-0.56,-1.07
-0.41,-0.59,-1.01
-0.41,-0.61,-0.89
-0.39,-0.63,-0.87
-0.38,-0.64,-0.91
-0.39,-0.64,-0.91
-0.35,-0.63,-0.90
-0.31,-0.62,-0.93
-0.27,-0.60,-1.00
-0.26,-0.58,-1.02
-0.27,-0.57,-1.04
-0.30,-0.56,-1.08
-0.29,-0.54,-1.09
-0.27,-0.54,-1.05
-0.24,-0.53,-1.05
-0.23,-0.53,-1.05
-0.26,-0.53,-1.01
-0.32,-0.53,-0.93
-0.34,-0.53,-0.91
-0.34,-0.52,-0.87
-0.32,-0.51,-0.78
-0.29,-0.50,-0.71
-0.22,-0.48,-0.72
-0.11,-0.46,-0.62
0.01,-0.45,-0.58
0.07,-0.41,-0.60
0.08,-0.38,-0.51
-0.04,-0.35,-0.34
-0.13,-0.35,-0.15
-0.21,-0.36,0.04
-0.25,-0.38,0.20
-0.25,-0.39,0.28
-0.23,-0.41,0.37
-0.17,-0.44,0.47
-0.11,-0.44,0.51
-0.04,-0.43,0.53
0.06,-0.43,0.60
0.13,-0.43,0.68
0.12,-0.42,0.78
-0.02,-0.45,0.85
-0.28,-0.44,0.94
-0.54,-0.49,1.05
-0.66,-0.52,0.94
-0.49,-0.48,1.02
-0.18,-0.43,0.98
-0.08,-0.53,1.08
0.06,-0.46,1.13
0.07,-0.47,1.09
0.01,-0.45,1.06
0.00,-0.46,1.08
-0.08,-0.47,1.18
-0.23,-0.50,1.22
-0.30,-0.50,1.24
-0.26,-0.49,1.21
-0.15,-0.47,1.10
-0.07,-0.46,1.04
-0.03,-0.43,1.04
-0.04,-0.43,1.02
-0.09,-0.44,1.01
-0.06,-0.42,0.98
-0.09,-0.40,1.07
-0.20,-0.41,1.10
-0.24,-0.39,1.19
-0.15,-0.38,1.21
-0.10,-0.36,1.13
-0.10,-0.35,1.10
-0.10,-0.34,1.14
-0.01,-0.34,1.17
-0.03,-0.32,1.18
0.02,-0.30,1.17
-0.03,-0.30,1.11
-0.12,-0.31,1.24
-0.64,-0.50,2.67
0.18,-0.16,4.00
0.44,-0.30,2.29
-0.26,-0.46,0.13
-0.24,-0.31,0.27
0.05,-0.33,0.59
0.09,-0.30,0.46
0.13,-0.30,0.39
0.18,-0.29,0.55
0.19,-0.30,0.77
0.05,-0.31,0.95
-0.03,-0.31,1.10
-0.05,-0.33,1.28
-0.06,-0.34,1.37
-0.05,-0.35,1.29
-0.00,-0.35,1.12
0.07,-0.34,0.95
0.09,-0.33,0.84
0.10,-0.32,0.76
0.09,-0.32,0.77
0.03,-0.32,0.84
-0.04,-0.33,0.96
-0.09,-0.35,1.08
-0.15,-0.34,1.10
-0.15,-0.34,1.04
-0.11,-0.33,0.98
-0.09,-0.32,0.89
-0.08,-0.31,0.85
-0.07,-0.32,0.89
-0.07,-0.32,0.94
-0.04,-0.32,0.99
-0.03,-0.31,1.00
-0.06,-0.31,1.00
-0.06,-0.31,1.00
-0.06,-0.31,1.00
-0.03,-0.31,0.99
-0.03,-0.31,1.00
-0.01,-0.31,0.98
0.01,-0.31,0.96
-0.02,-0.32,0.93
-0.04,-0.32,0.94
-0.05,-0.32,0.96
-0.07,-0.33,0.96
-0.05,-0.33,0.97
-0.05,-0.33,0.98
-0.04,-0.32,0.98
-0.04,-0.32,0.97
-0.03,-0.32,0.97
-0.02,-0.31,0.95
-0.04,-0.32,0.95
-0.05,-0.31,0.95
-0.05,-0.32,0.95
-0.07,-0.31,0.96
-0.08,-0.32,0.97
-0.07,-0.31,0.98
-0.06,-0.31,0.99
-0.02,-0.31,0.99
-0.01,-0.31,0.96
-0.03,-0.31,0.94
-0.05,-0.31,0.95
-0.04,-0.31,0.96
-0.07,-0.32,0.97
-0.08,-0.32,0.96
-0.07,-0.32,0.99
-0.05,-0.32,1.02
-0.03,-0.31,0.98
-0.02,-0.32,0.98
-0.02,-0.31,0.97
-0.02,-0.32,1.00
-0.06,-0.31,0.98
-0.08,-0.31,0.99
-0.12,-0.31,1.00
-0.07,-0.31,1.01
-0.03,-0.31,1.03
-0.00,-0.31,1.04
0.00,-0.32,1.04
-0.02,-0.32,1.07
-0.06,-0.32,1.10
-0.10,-0.32,1.13
-0.12,-0.31,1.18
-0.14,-0.30,1.22
-0.10,-0.28,1.26
-0.01,-0.28,1.31
0.10,-0.28,1.42
0.16,-0.27,1.54
0.20,-0.27,1.72
0.23,-0.18,1.82
0.23,-0.33,1.99
0.15,-0.30,1.83
0.00,-0.30,1.68
0.08,-0.29,1.51
0.08,-0.33,1.44
0.11,-0.35,1.44
0.13,-0.37,1.43
0.13,-0.37,1.38
0.01,-0.40,1.47
-0.21,-0.41,1.66
-0.33,-0.40,1.68
-0.08,-0.35,1.36
0.15,-0.32,1.05
0.25,-0.33,0.92
0.21,-0.37,0.90
0.16,-0.40,0.91
0.13,-0.40,0.80
0.13,-0.39,0.67
0.03,-0.39,0.62
-0.11,-0.41,0.72
-0.16,-0.43,0.80
-0.16,-0.43,0.75
-0.03,-0.42,0.64
0.09,-0.41,0.52
0.13,-0.41,0.37
0.20,-0.42,0.25
0.08,-0.39,0.20
0.04,-0.41,0.03
-0.17,-0.42,0.02
-0.30,-0.43,0.07
-0.31,-0.45,0.01
-0.22,-0.46,-0.21
-0.14,-0.48,-0.32
-0.07,-0.50,-0.31
-0.08,-0.51,-0.23
-0.06,-0.53,-0.21
-0.06,-0.53,-0.27
-0.01,-0.54,-0.27
-0.01,-0.51,-0.32
-0.10,-0.52,-0.37
-0.15,-0.53,-0.44
-0.18,-0.53,-0.51
-0.14,-0.52,-0.64
-0.13,-0.49,-0.66
-0.15,-0.48,-0.69
-0.15,-0.44,-0.88
-0.14,-0.43,-1.09
-0.26,-0.41,-1.18
-0.39,-0.41,-1.20
-0.51,-0.42,-1.18
-0.51,-0.41,-1.30
-0.45,-0.38,-1.46
-0.41,-0.37,-1.52
-0.45,-0.37,-1.55
-0.54,-0.39,-1.56
-0.54,-0.41,-1.54
-0.56,-0.42,-1.49
-0.62,-0.45,-1.36
-0.60,-0.46,-1.27
-0.55,-0.48,-1.18
-0.51,-0.50,-1.14
-0.43,-0.50,-1.12
-0.34,-0.50,-1.07
-0.28,-0.49,-1.06
-0.23,-0.47,-1.02
-0.19,-0.47,-0.97
-0.15,-0.47,-0.97
-0.14,-0.45,-0.99
-0.15,-0.45,-0.90
-0.21,-0.47,-0.76
-0.24,-0.48,-0.72
-0.21,-0.48,-0.68
-0.22,-0.50,-0.57
-0.22,-0.52,-0.58
-0.26,-0.52,-0.62
-0.29,-0.51,-0.60
-0.30,-0.51,-0.56
-0.23,-0.50,-0.53
-0.19,-0.47,-0.54
-0.18,-0.43,-0.51
-0.24,-0.40,-0.38
-0.19,-0.36,-0.22
-0.04,-0.35,-0.03
0.05,-0.33,0.13
0.09,-0.34,0.37
0.10,-0.38,0.59
0.12,-0.40,0.66
0.10,-0.41,0.62
0.00,-0.42,0.58
-0.14,-0.41,0.65
-0.17,-0.41,0.75
-0.18,-0.42,0.90
-0.19,-0.43,1.06
-0.16,-0.49,1.11
-0.15,-0.49,1.17
-0.05,-0.53,1.04
0.03,-0.47,0.95
0.01,-0.44,0.89
-0.04,-0.42,0.90
-0.10,-0.41,1.08
-0.16,-0.43,1.31
-0.18,-0.46,1.43
-0.18,-0.49,1.42
-0.10,-0.46,1.32
-0.00,-0.43,1.20
0.09,-0.44,1.14
0.15,-0.43,1.09
0.16,-0.40,1.00
0.15,-0.37,1.01
0.10,-0.37,1.12
-0.02,-0.39,1.28
-0.11,-0.39,1.36
-0.13,-0.39,1.36
-0.05,-0.39,1.31
0.04,-0.37,1.23
0.14,-0.36,1.20
0.16,-0.35,1.20
0.19,-0.35,1.23
0.18,-0.35,1.24
0.11,-0.35,1.22
-0.04,-0.36,1.26
-0.14,-0.36,1.19
-0.12,-0.33,1.12
-0.13,-0.32,1.05
-0.06,-0.31,1.01
-0.39,-0.57,2.10
1.03,-0.07,4.00
0.75,-0.30,1.64
-0.28,-0.27,-0.21
-0.47,-0.33,-0.11
-0.21,-0.35,0.81
0.04,-0.33,0.70
0.06,-0.32,0.51
-0.00,-0.32,0.81
0.02,-0.35,1.50
0.15,-0.35,1.66
-0.03,-0.34,1.21
-0.18,-0.34,0.78
-0.18,-0.34,0.65
-0.11,-0.36,0.79
-0.06,-0.35,0.95
-0.01,-0.35,1.08
0.04,-0.34,1.06
0.00,-0.33,0.97
-0.02,-0.33,0.91
-0.03,-0.32,0.89
-0.03,-0.33,0.92
-0.01,-0.33,0.98
0.00,-0.33,0.99
0.01,-0.33,0.96
-0.04,-0.33,0.91
-0.05,-0.33,0.96
-0.03,-0.34,1.00
-0.01,-0.34,0.99
-0.01,-0.34,0.96
-0.03,-0.33,0.93
-0.02,-0.33,0.95
-0.00,-0.34,1.00
0.01,-0.33,0.96
-0.02,-0.33,0.94
-0.03,-0.33,0.93
-0.04,-0.33,0.95
-0.05,-0.33,0.99
-0.04,-0.33,0.98
0.01,-0.33,0.95
0.03,-0.32,0.95
0.02,-0.32,0.96
0.01,-0.32,0.98
-0.00,-0.32,0.99
-0.04,-0.32,0.97
-0.04,-0.32,0.94
-0.01,-0.32,0.96
0.00,-0.33,0.99
0.01,-0.32,0.95
0.01,-0.32,0.95
0.00,-0.32,0.96
0.02,-0.32,0.98
0.00,-0.32,0.98
-0.00,-0.32,0.97
-0.01,-0.32,0.96
0.00,-0.31,0.97
-0.01,-0.32,0.95
-0.00,-0.32,0.98
0.02,-0.32,0.98
0.02,-0.31,0.97
0.04,-0.31,0.96
0.02,-0.31,0.96
0.01,-0.31,0.98
0.00,-0.31,0.96
0.00,-0.32,0.96
-0.01,-0.31,0.97
0.00,-0.31,0.97
-0.01,-0.32,0.97
0.02,-0.31,0.96
0.03,-0.31,0.98
0.01,-0.31,0.98
-0.00,-0.31,0.96
-0.00,-0.31,0.95
0.01,-0.31,0.99
-0.01,-0.31,0.98
-0.01,-0.31,0.98
-0.01,-0.31,0.99
-0.03,-0.31,1.01
-0.06,-0.31,1.02
-0.06,-0.32,1.07
-0.07,-0.30,1.13
-0.07,-0.30,1.26
-0.05,-0.30,1.49
-0.03,-0.33,1.67
0.04,-0.33,1.73
0.04,-0.32,1.78
0.04,-0.32,1.87
0.04,-0.30,1.88
0.14,-0.31,1.81
0.27,-0.24,1.66
0.10,-0.30,1.72
0.06,-0.34,1.72
0.03,-0.30,1.49
0.21,-0.34,1.49
0.11,-0.33,1.49
0.01,-0.35,1.53
-0.06,-0.37,1.53
-0.01,-0.37,1.38
0.04,-0.35,1.33
-0.02,-0.37,1.29
0.01,-0.36,1.07
-0.02,-0.36,0.92
-0.09,-0.37,0.78
-0.07,-0.40,0.67
-0.06,-0.42,0.66
-0.04,-0.44,0.67
0.04,-0.43,0.61
0.02,-0.42,0.50
-0.04,-0.42,0.36
-0.13,-0.44,0.34
-0.25,-0.46,0.39
-0.20,-0.48,0.33
-0.16,-0.48,0.26
-0.14,-0.49,0.23
-0.16,-0.52,0.16
-0.10,-0.50,0.10
-0.07,-0.52,0.11
-0.02,-0.52,0.08
-0.05,-0.52,-0.01
-0.06,-0.53,-0.13
-0.08,-0.54,-0.21
-0.20,-0.57,-0.20
-0.25,-0.58,-0.15
-0.21,-0.59,-0.16
-0.19,-0.60,-0.22
-0.10,-0.61,-0.28
-0.01,-0.61,-0.29
0.01,-0.61,-0.32
-0.07,-0.62,-0.33
-0.15,-0.63,-0.29
-0.20,-0.64,-0.25
-0.20,-0.65,-0.30
-0.11,-0.63,-0.48
-0.07,-0.61,-0.62
-0.08,-0.59,-0.62
-0.10,-0.57,-0.67
-0.18,-0.54,-0.80
-0.25,-0.51,-0.88
-0.30,-0.47,-1.04
-0.36,-0.41,-1.28
-0.50,-0.38,-1.44
-0.60,-0.33,-1.57
-0.67,-0.32,-1.70
-0.74,-0.32,-1.75
-0.74,-0.34,-1.73
-0.72,-0.33,-1.68
-0.65,-0.36,-1.49
-0.59,-0.38,-1.38
-0.51,-0.39,-1.37
-0.43,-0.41,-1.28
-0.36,-0.42,-1.18
-0.30,-0.43,-1.14
-0.26,-0.42,-1.15
-0.24,-0.43,-1.15
-0.25,-0.42,-1.14
-0.26,-0.42,-1.05
-0.28,-0.43,-0.95
-0.28,-0.43,-0.86
-0.20,-0.44,-0.80
-0.13,-0.44,-0.71
-0.07,-0.46,-0.63
-0.02,-0.46,-0.56
-0.04,-0.48,-0.46
-0.08,-0.49,-0.38
-0.05,-0.51,-0.32
-0.09,-0.50,-0.30
-0.17,-0.51,-0.18
-0.25,-0.52,-0.09
-0.32,-0.51,-0.05
-0.38,-0.53,0.03
-0.40,-0.54,0.10
-0.36,-0.51,0.18
-0.23,-0.50,0.23
-0.09,-0.47,0.22
0.01,-0.44,0.25
0.05,-0.45,0.33
0.08,-0.39,0.40
0.02,-0.40,0.56
-0.06,-0.40,0.73
-0.09,-0.44,0.91
-0.12,-0.46,1.07
-0.09,-0.45,1.08
-0.03,-0.53,1.05
0.11,-0.45,1.04
0.13,-0.51,1.04
0.04,-0.49,0.98
0.06,-0.50,1.05
0.06,-0.49,1.13
0.11,-0.51,1.19
0.19,-0.50,1.25
0.14,-0.50,1.12
0.06,-0.51,1.02
0.05,-0.49,0.98
-0.08,-0.48,0.91
-0.10,-0.46,0.91
-0.06,-0.43,0.94
-0.05,-0.41,0.99
-0.04,-0.41,1.08
-0.01,-0.42,1.16
0.01,-0.41,1.15
0.05,-0.42,1.12
0.09,-0.40,1.11
0.10,-0.35,1.04
0.10,-0.39,1.08
0.02,-0.39,1.10
-0.06,-0.38,1.16
-0.14,-0.38,1.23
-0.16,-0.38,1.24
-0.14,-0.37,1.23
-0.08,-0.35,1.14
-0.06,-0.35,1.14
0.03,-0.33,1.10
0.01,-0.31,1.12
-0.35,-0.55,1.58
-0.70,-0.05,4.00
1.56,-0.02,3.99
0.21,-0.21,-0.26
-0.79,-0.32,-1.68
-0.18,-0.29,0.08
0.13,-0.31,0.83
-0.01,-0.34,0.36
0.04,-0.33,0.51
0.17,-0.34,0.95
0.15,-0.36,1.10
-0.08,-0.47,1.73
0.16,-0.33,2.36
0.11,-0.38,1.20
-0.22,-0.37,0.27
-0.30,-0.38,0.31
-0.16,-0.38,0.70
-0.17,-0.39,0.83
-0.17,-0.40,1.17
-0.02,-0.39,1.25
0.01,-0.37,1.00
-0.03,-0.36,0.87
-0.06,-0.35,0.86
-0.08,-0.35,0.92
-0.10,-0.34,0.98
-0.12,-0.35,0.99
-0.13,-0.35,0.96
-0.14,-0.35,0.92
-0.11,-0.35,0.91
-0.05,-0.35,0.94
0.01,-0.35,0.95
0.01,-0.36,0.99
0.00,-0.36,0.99
-0.01,-0.36,0.96
-0.04,-0.37,0.97
-0.07,-0.36,0.94
-0.07,-0.36,0.91
-0.08,-0.36,0.94
-0.04,-0.37,0.96
-0.03,-0.37,0.98
-0.02,-0.36,0.94
-0.02,-0.36,0.92
-0.04,-0.36,0.96
-0.06,-0.36,0.97
-0.06,-0.35,0.96
-0.09,-0.35,0.94
-0.09,-0.35,0.93
-0.07,-0.35,0.97
-0.06,-0.35,0.97
-0.06,-0.36,0.93
-0.06,-0.35,0.94
-0.06,-0.36,0.96
-0.06,-0.36,0.94
-0.05,-0.36,0.95
-0.05,-0.36,0.94
-0.07,-0.36,0.98
-0.07,-0.36,0.98
-0.08,-0.37,0.95
-0.08,-0.37,0.94
-0.08,-0.36,0.94
-0.06,-0.36,0.94
-0.03,-0.36,0.96
-0.04,-0.36,0.97
-0.06,-0.37,0.99
-0.05,-0.36,1.00
-0.09,-0.36,0.99
-0.15,-0.35,0.99
-0.15,-0.35,0.99
-0.07,-0.35,1.01
-0.02,-0.35,1.01
-0.01,-0.35,1.00
-0.05,-0.35,1.02
-0.07,-0.35,1.09
-0.09,-0.36,1.14
-0.09,-0.34,1.32
-0.02,-0.36,1.38
0.00,-0.36,1.53
-0.02,-0.36,1.52
-0.00,-0.37,1.56
0.02,-0.38,1.58
-0.00,-0.39,1.63
0.04,-0.40,1.59
0.08,-0.41,1.54
0.03,-0.40,1.50
0.02,-0.42,1.42
0.12,-0.43,1.41
0.20,-0.44,1.40
0.22,-0.43,1.34
0.31,-0.45,1.31
0.30,-0.43,1.29
0.12,-0.41,1.21
-0.03,-0.43,1.11
-0.09,-0.42,1.10
-0.07,-0.44,1.05
0.01,-0.43,0.96
0.03,-0.46,0.92
-0.05,-0.48,0.91
-0.14,-0.50,0.83
-0.19,-0.51,0.79
-0.18,-0.53,0.74
-0.14,-0.54,0.63
-0.15,-0.55,0.60
-0.21,-0.57,0.56
-0.27,-0.58,0.53
-0.35,-0.59,0.44
-0.36,-0.61,0.40
-0.26,-0.62,0.41
-0.16,-0.62,0.33
-0.17,-0.64,0.21
-0.18,-0.65,0.21
-0.12,-0.64,0.28
-0.08,-0.63,0.22
-0.04,-0.61,0.20
-0.09,-0.60,0.20
-0.06,-0.59,0.13
-0.10,-0.59,-0.01
-0.15,-0.59,-0.15
-0.13,-0.58,-0.34
-0.22,-0.61,-0.39
-0.23,-0.61,-0.29
-0.16,-0.60,-0.25
-0.10,-0.58,-0.26
-0.01,-0.58,-0.38
0.04,-0.58,-0.43
0.01,-0.59,-0.45
-0.09,-0.60,-0.52
-0.24,-0.62,-0.51
-0.29,-0.65,-0.44
-0.24,-0.65,-0.45
-0.17,-0.64,-0.49
-0.08,-0.62,-0.51
-0.01,-0.60,-0.55
0.03,-0.57,-0.71
-0.04,-0.54,-0.84
-0.15,-0.50,-0.96
-0.21,-0.45,-1.11
-0.27,-0.42,-1.30
-0.43,-0.38,-1.47
-0.56,-0.34,-1.62
-0.61,-0.35,-1.78
-0.59,-0.34,-1.76
-0.51,-0.33,-1.74
-0.47,-0.33,-1.69
-0.43,-0.34,-1.56
-0.40,-0.36,-1.42
-0.38,-0.40,-1.30
-0.34,-0.44,-1.20
-0.33,-0.47,-1.06
-0.34,-0.51,-0.90
-0.31,-0.53,-0.79
-0.22,-0.55,-0.73
-0.15,-0.56,-0.73
-0.09,-0.56,-0.75
-0.02,-0.56,-0.75
-0.03,-0.57,-0.76
-0.07,-0.58,-0.74
-0.16,-0.57,-0.71
-0.29,-0.58,-0.62
-0.43,-0.60,-0.50
-0.53,-0.61,-0.37
-0.49,-0.62,-0.35
-0.37,-0.62,-0.37
-0.26,-0.58,-0.37
-0.14,-0.56,-0.31
-0.01,-0.51,-0.26
0.13,-0.47,-0.22
0.25,-0.43,-0.15
0.32,-0.37,-0.09
0.15,-0.34,0.04
-0.29,-0.40,0.44
-0.51,-0.43,0.62
-0.57,-0.48,0.63
-0.54,-0.49,0.64
-0.37,-0.49,0.60
-0.12,-0.47,0.57
0.12,-0.48,0.63
0.29,-0.48,0.71
0.41,-0.49,0.73
0.27,-0.49,0.72
-0.12,-0.44,0.91
-0.63,-0.51,1.11
-0.81,-0.48,1.16
-0.53,-0.49,1.13
-0.17,-0.45,1.05
0.13,-0.47,1.11
0.36,-0.46,1.24
0.46,-0.53,1.15
0.41,-0.48,1.19
0.29,-0.47,1.08
0.04,-0.49,0.91
-0.16,-0.48,0.92
-0.21,-0.48,0.93
-0.15,-0.47,0.89
-0.10,-0.44,0.86
-0.06,-0.42,0.85
-0.04,-0.40,0.86
0.10,-0.36,0.94
0.12,-0.38,1.09
0.14,-0.38,1.24
0.10,-0.39,1.34
0.08,-0.40,1.42
0.06,-0.41,1.38
-0.07,-0.38,1.25
-0.18,-0.23,1.15
-1.57,-1.42,3.53
0.93,0.32,4.00
1.47,-0.20,1.77
-0.91,-0.36,-2.49
-0.84,-0.34,-1.52
-0.05,-0.43,1.11
0.13,-0.40,1.15
0.03,-0.35,0.19
0.09,-0.36,0.45
0.18,-0.35,0.82
0.17,-0.34,0.70
-0.05,-0.43,0.98
-0.22,-0.42,1.65
0.05,-0.43,2.25
0.24,-0.40,1.52
-0.11,-0.36,0.33
-0.12,-0.37,0.23
0.05,-0.37,0.70
0.13,-0.38,0.82
0.13,-0.38,1.05
0.19,-0.38,1.33
0.15,-0.38,1.18
-0.02,-0.37,0.88
-0.08,-0.38,0.77
-0.09,-0.39,0.83
-0.07,-0.40,0.94
-0.02,-0.40,0.98
0.01,-0.40,0.95
0.02,-0.39,0.96
0.02,-0.40,0.97
0.01,-0.40,0.94
0.03,-0.40,0.88
0.01,-0.39,0.92
-0.01,-0.39,0.94
-0.01,-0.40,0.97
-0.00,-0.40,0.98
-0.02,-0.41,0.94
-0.01,-0.39,0.85
-0.03,-0.40,0.89
-0.05,-0.40,0.95
-0.06,-0.41,0.99
-0.10,-0.40,0.96
-0.07,-0.40,0.90
-0.01,-0.40,0.94
0.02,-0.40,0.95
0.04,-0.39,0.93
0.03,-0.39,0.94
0.00,-0.39,0.94
0.01,-0.39,0.95
-0.02,-0.39,0.94
-0.03,-0.39,0.94
-0.02,-0.39,0.95
-0.02,-0.39,0.95
-0.01,-0.39,0.93
0.01,-0.40,0.92
0.00,-0.39,0.93
-0.02,-0.40,0.96
-0.04,-0.40,0.93
-0.06,-0.40,0.93
-0.05,-0.41,0.92
0.06,-0.38,0.94
-0.00,-0.40,0.95
0.02,-0.40,0.94
0.02,-0.40,0.94
-0.00,-0.40,0.92
0.00,-0.39,0.93
0.00,-0.39,0.96
-0.01,-0.39,0.95
-0.01,-0.39,0.95
-0.03,-0.39,0.93
-0.03,-0.39,0.93
-0.04,-0.39,0.91
-0.01,-0.39,0.93
-0.00,-0.39,0.96
0.01,-0.39,0.95
0.02,-0.39,0.95
0.03,-0.39,0.95
-0.00,-0.39,0.95
-0.02,-0.40,0.93
-0.01,-0.39,0.93
-0.03,-0.39,0.96
-0.07,-0.39,0.99
-0.05,-0.38,1.00
0.01,-0.37,1.02
0.07,-0.39,1.10
0.14,-0.39,1.15
0.11,-0.37,1.16
0.03,-0.38,1.34
-0.07,-0.39,1.48
-0.15,-0.39,1.57
-0.08,-0.41,1.67
0.02,-0.43,1.66
0.14,-0.45,1.59
0.17,-0.47,1.42
0.11,-0.49,1.33
-0.01,-0.50,1.33
-0.07,-0.50,1.30
-0.03,-0.50,1.33
0.00,-0.47,1.41
0.10,-0.46,1.42
0.18,-0.44,1.39
0.23,-0.42,1.37
0.22,-0.42,1.37
0.15,-0.41,1.31
0.09,-0.42,1.30
0.05,-0.42,1.27
0.06,-0.43,1.21
0.08,-0.43,1.15
0.10,-0.44,1.05
0.13,-0.44,0.99
0.07,-0.45,0.98
0.01,-0.45,0.89
-0.03,-0.45,0.82
-0.01,-0.46,0.81
-0.04,-0.45,0.75
0.04,-0.47,0.74
0.09,-0.47,0.70
0.04,-0.46,0.55
-0.01,-0.47,0.44
-0.09,-0.46,0.31
-0.17,-0.49,0.31
-0.14,-0.52,0.44
-0.12,-0.51,0.40
-0.10,-0.48,0.28
-0.16,-0.52,0.28
-0.17,-0.50,0.35
-0.10,-0.54,0.34
-0.02,-0.52,0.29
-0.02,-0.51,0.15
-0.03,-0.49,0.05
-0.08,-0.50,-0.04
-0.27,-0.50,-0.03
-0.45,-0.56,0.04
-0.33,-0.53,-0.07
-0.13,-0.53,-0.19
-0.03,-0.51,-0.34
0.05,-0.51,-0.46
0.07,-0.51,-0.52
0.04,-0.51,-0.57
-0.15,-0.52,-0.64
-0.23,-0.50,-0.62
-0.25,-0.47,-0.78
-0.24,-0.46,-1.03
-0.28,-0.45,-1.18
-0.27,-0.41,-1.30
-0.32,-0.40,-1.40
-0.47,-0.43,-1.44
-0.60,-0.42,-1.53
-0.72,-0.43,-1.71
-0.80,-0.43,-1.76
-0.92,-0.45,-1.59
-0.89,-0.47,-1.47
-0.77,-0.48,-1.47
-0.69,-0.49,-1.37
-0.66,-0.51,-1.18
-0.61,-0.53,-1.03
-0.55,-0.56,-1.01
-0.45,-0.56,-0.97
-0.40,-0.59,-0.88
-0.29,-0.59,-0.84
-0.26,-0.59,-0.80
-0.19,-0.60,-0.74
-0.22,-0.61,-0.71
-0.19,-0.63,-0.66
-0.23,-0.64,-0.64
-0.26,-0.64,-0.68
-0.27,-0.65,-0.67
-0.29,-0.63,-0.64
-0.24,-0.61,-0.62
-0.13,-0.59,-0.61
-0.00,-0.58,-0.58
0.12,-0.55,-0.55
0.16,-0.53,-0.48
0.02,-0.52,-0.37
-0.20,-0.52,-0.26
-0.36,-0.54,-0.20
-0.50,-0.55,-0.20
-0.55,-0.53,-0.18
-0.47,-0.51,-0.10
-0.29,-0.46,-0.00
-0.09,-0.41,0.08
0.12,-0.37,0.22
0.37,-0.35,0.46
0.61,-0.36,0.68
0.69,-0.38,0.81
0.46,-0.44,0.96
0.05,-0.51,1.06
-0.22,-0.56,1.02
-0.33,-0.58,0.96
-0.30,-0.58,0.84
-0.14,-0.57,0.76
0.07,-0.57,0.76
0.18,-0.52,0.74
0.20,-0.55,0.58
0.24,-0.49,0.71
0.32,-0.49,0.87
0.39,-0.48,1.03
0.33,-0.50,1.14
0.17,-0.53,1.23
-0.05,-0.57,1.24
-0.22,-0.57,1.12
-0.21,-0.56,0.93
-0.14,-0.51,0.80
-0.03,-0.50,0.74
0.08,-0.48,0.82
0.12,-0.47,0.85
0.15,-0.45,0.88
0.17,-0.43,0.92
0.21,-0.43,0.99
0.15,-0.41,1.06
0.03,-0.40,1.02
-0.17,-0.39,0.97
-0.26,-0.38,0.99
-0.20,-0.36,1.05
-0.07,-0.35,1.15
0.03,-0.32,1.20
0.14,-0.33,1.19
0.17,-0.30,1.23
-0.63,-1.02,1.69
-0.66,-0.57,4.00
2.61,-0.34,4.00
1.57,0.48,-0.66
-0.27,-0.30,-3.02
-1.36,-0.45,-2.32
-0.90,-0.36,0.66
-0.20,-0.38,1.31
0.02,-0.43,0.64
0.09,-0.37,0.49
0.07,-0.50,1.05
0.09,-0.47,2.01
0.29,-0.46,2.30
0.20,-0.41,1.50
-0.10,-0.42,0.57
-0.32,-0.42,0.34
-0.39,-0.44,0.42
-0.36,-0.46,0.67
-0.20,-0.45,0.97
-0.06,-0.43,1.08
-0.00,-0.43,1.01
0.02,-0.41,0.97
-0.03,-0.41,0.93
-0.08,-0.41,0.90
-0.11,-0.41,0.91
-0.13,-0.41,0.90
-0.16,-0.41,0.92
-0.18,-0.41,0.94
-0.14,-0.42,0.96
-0.11,-0.41,0.92
-0.05,-0.41,0.91
-0.01,-0.41,0.92
0.02,-0.41,0.92
0.02,-0.41,0.91
-0.01,-0.42,0.90
-0.02,-0.42,0.92
-0.04,-0.43,0.96
-0.09,-0.43,0.94
-0.08,-0.42,0.91
-0.02,-0.42,0.91
-0.01,-0.42,0.92
0.00,-0.42,0.95
0.00,-0.41,0.92
-0.02,-0.41,0.92
-0.05,-0.41,0.93
-0.07,-0.42,0.93
-0.09,-0.41,0.91
-0.08,-0.41,0.92
-0.06,-0.40,0.92
-0.04,-0.40,0.92
-0.03,-0.41,0.92
-0.03,-0.41,0.95
-0.03,-0.41,0.94
-0.02,-0.41,0.93
-0.03,-0.41,0.91
-0.07,-0.42,0.91
-0.08,-0.42,0.94
-0.08,-0.42,0.94
-0.06,-0.42,0.95
-0.05,-0.41,0.93
-0.05,-0.41,0.92
-0.05,-0.41,0.93
-0.05,-0.41,0.92
-0.07,-0.41,0.93
-0.08,-0.42,0.93
-0.07,-0.42,0.93
-0.08,-0.41,0.92
-0.06,-0.41,0.93
-0.06,-0.41,0.92
-0.05,-0.42,0.91
-0.05,-0.42,0.96
-0.04,-0.42,0.97
-0.02,-0.41,0.93
-0.05,-0.41,0.92
-0.06,-0.41,0.90
-0.08,-0.41,0.90
-0.09,-0.41,0.92
-0.08,-0.41,0.93
-0.07,-0.41,0.96
-0.05,-0.41,0.96
-0.04,-0.41,0.96
-0.05,-0.41,0.97
-0.06,-0.41,1.03
-0.07,-0.40,1.07
-0.03,-0.40,1.12
0.01,-0.40,1.19
0.04,-0.41,1.25
0.05,-0.42,1.29
0.03,-0.42,1.34
0.02,-0.43,1.36
0.06,-0.44,1.39
0.06,-0.45,1.41
0.03,-0.46,1.43
0.02,-0.47,1.42
0.02,-0.46,1.40
0.03,-0.48,1.46
-0.01,-0.46,1.47
0.04,-0.48,1.50
0.03,-0.46,1.48
0.02,-0.45,1.44
0.01,-0.46,1.46
-0.03,-0.46,1.40
-0.05,-0.47,1.31
-0.05,-0.48,1.28
-0.02,-0.48,1.15
0.01,-0.48,1.08
0.02,-0.48,1.04
0.03,-0.49,1.04
0.03,-0.50,0.99
0.02,-0.51,0.92
-0.01,-0.52,0.93
-0.03,-0.52,0.87
-0.05,-0.51,0.78
-0.10,-0.53,0.84
-0.13,-0.52,0.82
-0.13,-0.53,0.70
-0.21,-0.53,0.66
-0.24,-0.52,0.53
-0.22,-0.53,0.45
-0.19,-0.54,0.44
-0.13,-0.55,0.37
0.01,-0.54,0.20
-0.17,-0.50,0.31
-0.11,-0.55,0.23
-0.21,-0.54,0.05
-0.17,-0.55,0.08
-0.14,-0.51,0.11
-0.08,-0.53,0.00
-0.09,-0.52,-0.09
-0.16,-0.54,-0.10
-0.11,-0.54,-0.22
-0.07,-0.53,-0.32
-0.11,-0.55,-0.34
-0.10,-0.53,-0.37
-0.13,-0.54,-0.46
-0.14,-0.52,-0.57
-0.14,-0.53,-0.57
-0.17,-0.54,-0.64
-0.19,-0.54,-0.70
-0.17,-0.55,-0.68
-0.14,-0.58,-0.67
-0.18,-0.58,-0.68
-0.22,-0.59,-0.70
-0.27,-0.59,-0.70
-0.25,-0.60,-0.71
-0.28,-0.60,-0.82
-0.27,-0.59,-0.77
-0.25,-0.59,-0.77
-0.18,-0.56,-0.87
-0.24,-0.53,-1.07
-0.38,-0.53,-1.24
-0.57,-0.53,-1.35
-0.64,-0.51,-1.46
-0.64,-0.50,-1.55
-0.63,-0.50,-1.53
-0.61,-0.49,-1.43
-0.54,-0.48,-1.31
-0.46,-0.50,-1.25
-0.45,-0.53,-1.21
-0.41,-0.55,-1.14
-0.40,-0.57,-1.10
-0.36,-0.60,-1.03
-0.29,-0.61,-0.92
-0.18,-0.60,-0.88
-0.08,-0.59,-0.84
-0.05,-0.58,-0.80
-0.03,-0.57,-0.77
-0.00,-0.56,-0.75
0.01,-0.57,-0.80
-0.01,-0.55,-0.88
-0.06,-0.56,-0.83
-0.15,-0.55,-0.76
-0.23,-0.54,-0.66
-0.31,-0.57,-0.60
-0.36,-0.57,-0.54
-0.34,-0.58,-0.47
-0.26,-0.59,-0.40
-0.19,-0.60,-0.38
-0.12,-0.60,-0.37
-0.19,-0.60,-0.31
-0.36,-0.61,-0.13
-0.42,-0.62,-0.00
-0.34,-0.64,0.09
-0.20,-0.65,0.14
-0.04,-0.64,0.16
-0.01,-0.64,0.15
0.01,-0.64,0.17
0.02,-0.65,0.26
0.09,-0.64,0.29
0.11,-0.63,0.27
0.09,-0.62,0.28
0.02,-0.61,0.36
-0.03,-0.60,0.45
-0.06,-0.61,0.48
-0.08,-0.59,0.50
-0.01,-0.58,0.52
0.06,-0.53,0.59
0.12,-0.52,0.64
0.14,-0.53,0.69
0.22,-0.53,0.75
0.30,-0.48,0.82
0.17,-0.47,0.82
-0.11,-0.54,0.99
-0.19,-0.52,1.08
-0.10,-0.60,0.89
-0.09,-0.49,0.75
-0.06,-0.52,0.76
0.01,-0.49,0.79
0.12,-0.48,0.81
0.18,-0.48,0.85
0.27,-0.46,0.94
0.33,-0.43,0.98
0.13,-0.44,1.09
-0.12,-0.44,1.19
-0.28,-0.46,1.23
-0.30,-0.45,1.18
-0.23,-0.43,1.11
-0.17,-0.41,1.06
-0.12,-0.35,0.95
-0.09,-0.33,1.02
-0.04,-0.31,1.12
0.05,-0.31,1.19
-0.05,-0.31,1.36
-0.46,-0.39,1.66
-1.64,-0.42,4.00
1.88,1.16,4.00
1.33,-0.31,0.80
-0.54,-0.36,-2.35
-1.08,-0.36,-1.70
-0.35,-0.44,0.87
-0.01,-0.39,1.21
0.03,-0.41,0.40
-0.04,-0.38,0.44
0.22,-0.38,0.80
0.27,-0.38,0.76
0.10,-0.37,0.57
-0.11,-0.36,0.58
-0.25,-0.49,0.99
-0.31,-0.45,1.78
0.01,-0.45,2.22
0.20,-0.43,1.55
-0.06,-0.39,0.52
-0.09,-0.39,0.38
0.09,-0.38,0.74
0.12,-0.38,0.75
0.05,-0.38,0.79
0.01,-0.38,0.92
-0.04,-0.39,1.02
-0.08,-0.41,1.07
-0.12,-0.40,1.09
-0.09,-0.41,1.04
-0.07,-0.40,0.91
-0.04,-0.40,0.87
-0.00,-0.39,0.86
0.01,-0.39,0.86
-0.01,-0.40,0.90
-0.02,-0.40,0.97
-0.01,-0.40,1.00
-0.03,-0.40,0.96
-0.02,-0.40,0.95
-0.01,-0.39,0.94
0.00,-0.39,0.95
0.00,-0.40,0.94
-0.02,-0.39,0.90
-0.03,-0.39,0.89
-0.03,-0.40,0.95
-0.02,-0.41,0.99
-0.02,-0.40,0.95
-0.03,-0.40,0.89
-0.03,-0.39,0.92
-0.02,-0.39,0.95
-0.01,-0.40,0.95
-0.01,-0.39,0.95
-0.03,-0.39,0.94
-0.06,-0.39,0.91
-0.04,-0.39,0.92
-0.03,-0.39,0.91
-0.02,-0.39,0.92
-0.02,-0.39,0.96
-0.02,-0.40,0.96
-0.03,-0.40,0.94
-0.03,-0.40,0.93
-0.03,-0.40,0.94
-0.03,-0.40,0.94
-0.04,-0.40,0.89
-0.03,-0.40,0.89
-0.02,-0.40,0.94
-0.03,-0.40,0.96
-0.04,-0.40,0.95
-0.02,-0.39,0.94
-0.03,-0.40,0.93
-0.04,-0.40,0.94
-0.03,-0.39,0.92
-0.04,-0.39,0.92
-0.04,-0.39,0.92
-0.05,-0.39,0.94
-0.04,-0.39,0.99
-0.04,-0.37,0.98
-0.02,-0.38,1.03
0.01,-0.38,1.09
0.02,-0.39,1.15
0.12,-0.38,1.23
0.03,-0.38,1.22
0.05,-0.40,1.32
-0.03,-0.41,1.43
-0.08,-0.41,1.50
-0.09,-0.43,1.59
0.02,-0.45,1.69
0.08,-0.46,1.80
0.13,-0.46,1.73
0.11,-0.45,1.63
0.09,-0.46,1.50
-0.01,-0.46,1.34
-0.07,-0.46,1.20
-0.08,-0.46,1.20
0.02,-0.48,1.20
0.06,-0.49,1.18
0.09,-0.49,1.18
0.15,-0.50,1.17
0.12,-0.50,1.12
0.08,-0.51,1.06
0.05,-0.51,0.96
0.04,-0.52,0.87
-0.03,-0.52,0.80
-0.01,-0.53,0.77
-0.08,-0.56,0.83
-0.08,-0.56,0.76
-0.00,-0.56,0.72
0.06,-0.56,0.70
0.08,-0.56,0.67
0.09,-0.57,0.72
0.05,-0.58,0.71
-0.03,-0.58,0.65
-0.06,-0.58,0.57
-0.12,-0.59,0.46
-0.17,-0.60,0.34
-0.21,-0.62,0.27
-0.17,-0.62,0.30
-0.17,-0.64,0.32
-0.11,-0.63,0.28
-0.11,-0.62,0.20
0.05,-0.62,0.22
0.06,-0.61,0.14
-0.06,-0.60,0.09
-0.06,-0.63,-0.08
-0.12,-0.63,-0.15
-0.24,-0.66,-0.20
-0.27,-0.68,-0.25
-0.22,-0.71,-0.26
-0.19,-0.71,-0.21
-0.18,-0.74,-0.18
-0.10,-0.75,-0.16
0.00,-0.73,-0.13
0.08,-0.72,-0.10
0.03,-0.72,-0.03
0.00,-0.70,-0.03
0.03,-0.66,-0.21
0.01,-0.65,-0.42
-0.12,-0.62,-0.54
-0.21,-0.62,-0.55
-0.19,-0.58,-0.64
-0.17,-0.57,-0.70
-0.13,-0.54,-0.80
-0.16,-0.52,-0.85
-0.16,-0.50,-0.94
-0.22,-0.47,-1.10
-0.31,-0.48,-1.28
-0.42,-0.47,-1.35
-0.49,-0.49,-1.36
-0.53,-0.48,-1.38
-0.57,-0.47,-1.44
-0.61,-0.47,-1.45
-0.62,-0.48,-1.35
-0.55,-0.47,-1.24
-0.51,-0.51,-1.13
-0.40,-0.52,-0.98
-0.35,-0.54,-1.03
-0.33,-0.58,-0.93
-0.33,-0.62,-0.80
-0.30,-0.67,-0.76
-0.26,-0.68,-0.70
-0.20,-0.70,-0.64
-0.18,-0.74,-0.50
-0.15,-0.76,-0.48
-0.12,-0.77,-0.50
-0.08,-0.77,-0.53
-0.06,-0.78,-0.52
-0.10,-0.77,-0.56
-0.14,-0.76,-0.66
-0.12,-0.75,-0.69
-0.13,-0.73,-0.74
-0.21,-0.72,-0.70
-0.30,-0.71,-0.66
-0.37,-0.72,-0.64
-0.47,-0.72,-0.51
-0.47,-0.72,-0.50
-0.39,-0.72,-0.49
-0.28,-0.71,-0.52
-0.18,-0.68,-0.54
-0.11,-0.66,-0.58
-0.02,-0.64,-0.60
-0.01,-0.61,-0.63
-0.14,-0.59,-0.61
-0.31,-0.58,-0.40
-0.50,-0.61,-0.15
-0.56,-0.63,-0.01
-0.46,-0.62,-0.01
-0.28,-0.61,-0.06
-0.08,-0.58,-0.10
0.09,-0.57,-0.08
0.17,-0.52,-0.09
0.25,-0.51,-0.05
0.27,-0.46,0.08
0.26,-0.42,0.24
0.18,-0.44,0.50
0.05,-0.47,0.74
-0.10,-0.49,0.88
-0.19,-0.52,0.99
-0.22,-0.59,1.06
-0.14,-0.57,0.99
0.05,-0.59,0.95
0.21,-0.53,0.96
0.40,-0.56,0.85
0.37,-0.55,0.73
0.36,-0.50,0.92
0.13,-0.54,0.96
-0.05,-0.54,1.03
-0.31,-0.59,1.19
-0.38,-0.60,1.14
-0.26,-0.59,1.02
-0.15,-0.57,0.89
-0.14,-0.54,0.73
-0.16,-0.53,0.68
-0.08,-0.51,0.76
-0.00,-0.52,0.94
0.11,-0.49,1.00
0.10,-0.49,1.01
-0.03,-0.49,1.05
-0.14,-0.47,1.03
-0.18,-0.46,1.02
-0.19,-0.45,0.94
-0.12,-0.41,0.95
-0.12,-0.39,1.02
-0.11,-0.37,1.01
-0.12,-0.37,1.06
-0.16,-0.36,1.10
-0.38,-0.33,1.23
-1.80,-0.87,4.00
1.24,0.43,4.00
1.58,-0.19,2.28
-0.20,-0.30,-1.85
-0.93,-0.38,-2.03
-0.20,-0.42,0.48
-0.12,-0.44,0.92
-0.13,-0.42,0.45
-0.14,-0.40,0.35
0.02,-0.40,0.55
0.09,-0.39,0.69
0.03,-0.44,0.88
-0.12,-0.47,1.09
-0.11,-0.47,1.38
0.01,-0.48,1.54
0.04,-0.47,1.61
0.06,-0.45,1.09
-0.02,-0.42,0.53
-0.03,-0.41,0.58
0.02,-0.41,0.74
0.08,-0.40,0.80
0.09,-0.40,0.93
0.09,-0.41,1.04
0.06,-0.42,1.07
0.05,-0.42,1.02
-0.00,-0.43,0.93
-0.06,-0.44,0.84
-0.02,-0.44,0.87
-0.00,-0.44,0.93
0.01,-0.44,0.94
0.03,-0.43,0.94
0.03,-0.43,0.93
-0.01,-0.43,0.91
-0.03,-0.44,0.91
-0.01,-0.43,0.92
0.01,-0.44,0.92
-0.01,-0.42,0.93
0.00,-0.42,0.91
0.01,-0.42,0.94
0.00,-0.42,0.93
-0.02,-0.43,0.93
-0.01,-0.43,0.91
-0.01,-0.43,0.91
-0.03,-0.43,0.92
-0.04,-0.43,0.91
-0.03,-0.43,0.91
0.03,-0.41,0.92
-0.01,-0.42,0.94
0.01,-0.43,0.94
0.01,-0.42,0.92
0.02,-0.43,0.94
0.01,-0.42,0.93
0.02,-0.43,0.92
0.02,-0.43,0.93
-0.00,-0.43,0.93
-0.03,-0.42,0.91
-0.02,-0.42,0.92
-0.03,-0.43,0.92
0.00,-0.43,0.92
-0.01,-0.42,0.91
-0.01,-0.43,0.93
-0.00,-0.43,0.93
-0.02,-0.43,0.94
-0.04,-0.43,0.92
-0.03,-0.43,0.90
-0.01,-0.43,0.93
0.00,-0.43,0.94
0.02,-0.42,0.94
0.00,-0.42,0.92
-0.01,-0.42,0.92
-0.02,-0.42,0.92
-0.02,-0.43,0.92
-0.03,-0.42,0.92
-0.02,-0.43,0.93
-0.02,-0.43,0.91
-0.01,-0.43,0.93
0.00,-0.43,0.91
0.01,-0.43,0.93
0.02,-0.43,0.94
-0.00,-0.43,0.93
-0.02,-0.42,0.93
-0.03,-0.43,0.93
-0.03,-0.42,0.93
-0.03,-0.42,0.94
0.01,-0.42,0.95
0.03,-0.42,0.96
0.05,-0.42,1.02
0.04,-0.42,1.09
0.01,-0.42,1.10
0.00,-0.43,1.09
-0.02,-0.43,1.06
-0.03,-0.44,1.13
-0.03,-0.45,1.21
-0.03,-0.45,1.29
0.03,-0.46,1.44
0.11,-0.47,1.45
0.19,-0.47,1.50
0.13,-0.48,1.41
0.10,-0.49,1.37
0.01,-0.49,1.37
-0.06,-0.51,1.39
-0.11,-0.50,1.34
0.02,-0.48,1.34
0.11,-0.46,1.32
0.20,-0.46,1.36
0.25,-0.46,1.43
0.24,-0.47,1.46
0.22,-0.45,1.42
0.16,-0.47,1.34
0.11,-0.46,1.25
0.13,-0.47,1.06
0.10,-0.45,1.06
0.07,-0.48,1.07
0.08,-0.48,1.08
0.07,-0.49,1.06
0.12,-0.50,1.02
0.16,-0.48,0.99
0.16,-0.48,0.93
0.16,-0.47,0.84
0.07,-0.49,0.79
-0.04,-0.49,0.72
-0.10,-0.50,0.61
-0.11,-0.52,0.60
-0.05,-0.52,0.61
0.01,-0.52,0.58
-0.02,-0.49,0.46
-0.10,-0.51,0.41
-0.13,-0.52,0.36
-0.17,-0.52,0.23
-0.08,-0.53,0.19
-0.01,-0.54,0.09
-0.07,-0.53,0.18
-0.10,-0.51,0.11
-0.09,-0.53,0.09
-0.12,-0.55,0.04
-0.19,-0.54,-0.03
-0.20,-0.53,-0.08
-0.11,-0.55,-0.11
-0.01,-0.52,-0.28
-0.00,-0.52,-0.36
-0.12,-0.54,-0.43
-0.26,-0.54,-0.54
-0.34,-0.55,-0.51
-0.43,-0.56,-0.42
-0.39,-0.56,-0.37
-0.22,-0.52,-0.52
-0.07,-0.47,-0.69
-0.00,-0.46,-0.78
-0.01,-0.43,-0.83
-0.11,-0.41,-0.99
-0.24,-0.39,-1.21
-0.28,-0.36,-1.38
-0.38,-0.35,-1.59
-0.48,-0.34,-1.73
-0.57,-0.35,-1.64
-0.67,-0.39,-1.60
-0.66,-0.41,-1.55
-0.62,-0.43,-1.52
-0.53,-0.46,-1.48
-0.51,-0.48,-1.30
-0.48,-0.51,-1.14
-0.41,-0.55,-1.09
-0.36,-0.58,-0.98
-0.34,-0.62,-0.90
-0.33,-0.64,-0.85
-0.26,-0.64,-0.82
-0.20,-0.63,-0.74
-0.12,-0.64,-0.67
-0.03,-0.62,-0.68
0.06,-0.61,-0.72
0.11,-0.62,-0.76
0.07,-0.63,-0.79
-0.04,-0.61,-0.84
-0.19,-0.62,-0.87
-0.31,-0.62,-0.88
-0.41,-0.64,-0.79
-0.46,-0.64,-0.68
-0.48,-0.64,-0.58
-0.41,-0.63,-0.55
-0.31,-0.63,-0.53
-0.23,-0.61,-0.47
-0.16,-0.62,-0.48
-0.16,-0.61,-0.49
-0.15,-0.60,-0.51
-0.19,-0.57,-0.47
-0.30,-0.55,-0.28
-0.45,-0.55,-0.02
-0.45,-0.56,0.20
-0.28,-0.57,0.32
-0.14,-0.58,0.32
0.01,-0.57,0.29
0.10,-0.57,0.22
0.20,-0.57,0.18
0.28,-0.56,0.12
0.36,-0.53,0.11
0.22,-0.48,0.17
-0.08,-0.47,0.40
-0.34,-0.47,0.66
-0.48,-0.50,0.83
-0.36,-0.50,0.86
-0.20,-0.50,0.79
-0.08,-0.50,0.70
0.02,-0.49,0.60
0.03,-0.48,0.53
0.03,-0.45,0.57
-0.07,-0.47,0.66
-0.11,-0.42,0.89
-0.07,-0.43,1.08
-0.05,-0.45,1.11
-0.07,-0.43,1.25
0.07,-0.45,1.26
0.17,-0.49,1.11
0.16,-0.48,1.03
0.17,-0.49,1.07
0.25,-0.50,1.11
0.25,-0.48,1.12
0.07,-0.49,1.16
-0.12,-0.48,1.23
-0.31,-0.47,1.28
-0.32,-0.47,1.29
-0.20,-0.43,1.30
-0.05,-0.42,1.26
0.03,-0.43,1.27
0.08,-0.41,1.24
0.03,-0.41,1.16
0.03,-0.39,1.13
-0.02,-0.34,1.11
-0.26,-0.32,1.24
-0.75,-0.70,3.54
0.92,0.09,4.00
0.85,-0.23,1.90
-0.61,-0.33,-1.36
-0.78,-0.36,-0.83
-0.08,-0.37,0.92
0.14,-0.37,0.74
0.08,-0.34,0.31
0.07,-0.36,0.55
0.10,-0.36,0.76
0.09,-0.36,0.92
0.01,-0.37,1.03
-0.14,-0.41,1.41
0.01,-0.37,2.10
0.11,-0.37,1.45
-0.12,-0.36,0.48
-0.17,-0.37,0.49
-0.14,-0.38,0.72
-0.16,-0.38,0.82
-0.16,-0.38,0.95
-0.11,-0.39,1.11
-0.06,-0.38,1.08
-0.07,-0.38,1.01
-0.08,-0.38,0.89
-0.11,-0.39,0.86
-0.11,-0.39,0.90
-0.09,-0.38,0.92
-0.06,-0.38,0.95
-0.03,-0.38,0.99
-0.03,-0.38,0.95
-0.05,-0.38,0.95
-0.03,-0.37,0.95
-0.00,-0.38,0.95
0.03,-0.37,0.95
0.02,-0.37,0.93
0.01,-0.37,0.95
-0.01,-0.37,0.94
-0.02,-0.37,0.92
-0.03,-0.37,0.95
-0.03,-0.37,0.97
-0.01,-0.37,0.97
-0.01,-0.37,0.96
-0.01,-0.37,0.95
-0.01,-0.37,0.92
-0.03,-0.37,0.93
-0.04,-0.37,0.94
-0.04,-0.38,0.97
-0.04,-0.38,0.97
0.00,-0.38,0.92
-0.01,-0.37,0.98
-0.01,-0.36,0.93
-0.02,-0.37,0.93
-0.03,-0.37,0.93
-0.02,-0.37,0.96
-0.01,-0.37,0.95
-0.02,-0.37,0.95
-0.00,-0.37,0.96
0.00,-0.37,0.95
0.00,-0.37,0.95
-0.01,-0.37,0.93
-0.03,-0.37,0.94
-0.03,-0.37,0.96
-0.03,-0.37,0.94
-0.03,-0.37,0.96
-0.04,-0.37,0.95
-0.01,-0.37,0.95
-0.01,-0.37,0.93
-0.00,-0.37,0.94
-0.03,-0.37,0.95
-0.04,-0.37,0.93
-0.05,-0.37,0.95
-0.05,-0.37,0.95
-0.04,-0.37,0.96
-0.03,-0.37,0.95
-0.02,-0.38,0.95
-0.03,-0.37,0.94
-0.03,-0.37,0.94
-0.04,-0.37,0.95
-0.04,-0.36,0.96
-0.05,-0.36,1.00
-0.01,-0.36,0.99
0.01,-0.37,1.01
0.02,-0.38,1.02
-0.02,-0.38,1.07
-0.06,-0.39,1.11
-0.10,-0.39,1.13
-0.09,-0.37,1.14
-0.14,-0.38,1.19
-0.13,-0.38,1.28
-0.04,-0.39,1.37
0.05,-0.40,1.45
0.04,-0.41,1.47
0.02,-0.41,1.46
-0.02,-0.42,1.41
-0.06,-0.42,1.36
-0.03,-0.43,1.28
-0.09,-0.43,1.28
-0.04,-0.45,1.26
-0.05,-0.45,1.28
0.02,-0.46,1.28
0.03,-0.47,1.26
0.04,-0.48,1.26
0.04,-0.47,1.24
0.00,-0.49,1.24
-0.04,-0.49,1.19
-0.06,-0.50,1.10
-0.08,-0.50,1.05
-0.01,-0.52,1.01
0.04,-0.51,0.95
0.02,-0.52,0.93
-0.03,-0.53,0.96
-0.10,-0.56,1.02
-0.11,-0.56,0.95
-0.03,-0.58,0.89
0.05,-0.58,0.86
0.05,-0.58,0.82
-0.02,-0.57,0.73
-0.11,-0.59,0.70
-0.16,-0.60,0.63
-0.16,-0.61,0.60
-0.14,-0.61,0.60
-0.12,-0.62,0.58
-0.07,-0.63,0.55
-0.08,-0.62,0.46
-0.13,-0.63,0.43
-0.20,-0.63,0.36
-0.18,-0.64,0.36
-0.13,-0.64,0.34
-0.10,-0.63,0.29
-0.09,-0.61,0.21
-0.12,-0.63,0.19
-0.10,-0.61,0.05
-0.12,-0.63,-0.04
-0.12,-0.62,-0.03
-0.10,-0.62,-0.13
-0.12,-0.62,-0.18
-0.08,-0.62,-0.19
-0.11,-0.63,-0.21
-0.10,-0.63,-0.22
-0.09,-0.64,-0.20
-0.14,-0.65,-0.19
-0.13,-0.65,-0.25
-0.07,-0.63,-0.27
-0.02,-0.63,-0.33
-0.02,-0.60,-0.44
-0.08,-0.60,-0.46
-0.09,-0.59,-0.53
-0.19,-0.62,-0.44
-0.18,-0.61,-0.45
-0.14,-0.56,-0.67
-0.10,-0.55,-0.77
-0.13,-0.50,-0.88
-0.17,-0.48,-1.06
-0.24,-0.48,-1.17
-0.28,-0.44,-1.33
-0.35,-0.42,-1.44
-0.42,-0.43,-1.48
-0.46,-0.42,-1.52
-0.46,-0.41,-1.61
-0.46,-0.41,-1.66
-0.47,-0.43,-1.59
-0.46,-0.46,-1.41
-0.48,-0.50,-1.27
-0.44,-0.53,-1.20
-0.38,-0.56,-1.06
-0.35,-0.59,-0.92
-0.26,-0.61,-0.86
-0.23,-0.62,-0.77
-0.15,-0.64,-0.68
-0.10,-0.63,-0.68
-0.02,-0.64,-0.71
-0.03,-0.62,-0.73
-0.02,-0.64,-0.76
-0.05,-0.62,-0.80
-0.08,-0.64,-0.80
-0.13,-0.63,-0.78
-0.22,-0.62,-0.78
-0.26,-0.64,-0.79
-0.26,-0.66,-0.78
-0.28,-0.64,-0.74
-0.25,-0.67,-0.68
-0.20,-0.65,-0.60
-0.17,-0.65,-0.52
-0.16,-0.65,-0.42
-0.18,-0.65,-0.33
-0.21,-0.65,-0.31
-0.24,-0.65,-0.29
-0.20,-0.65,-0.29
-0.16,-0.62,-0.32
-0.20,-0.62,-0.25
-0.20,-0.61,-0.15
-0.15,-0.58,-0.05
-0.04,-0.58,0.05
0.09,-0.55,0.17
0.16,-0.56,0.31
0.10,-0.58,0.48
0.00,-0.61,0.60
-0.10,-0.63,0.61
-0.09,-0.65,0.57
-0.08,-0.65,0.42
-0.08,-0.65,0.36
-0.04,-0.64,0.35
-0.04,-0.62,0.38
-0.02,-0.61,0.51
0.00,-0.61,0.66
0.09,-0.61,0.83
0.09,-0.64,1.00
0.05,-0.66,1.08
-0.02,-0.68,1.06
-0.12,-0.70,0.95
-0.18,-0.69,0.71
-0.29,-0.67,0.59
-0.23,-0.65,0.54
-0.16,-0.67,0.51
-0.03,-0.58,0.59
0.03,-0.59,0.69
0.10,-0.54,0.81
0.22,-0.56,0.95
0.13,-0.56,1.14
-0.04,-0.58,1.04
-0.10,-0.55,0.95
-0.10,-0.55,0.88
-0.06,-0.53,0.82
-0.03,-0.51,0.80
0.02,-0.50,0.87
0.02,-0.47,0.93
0.11,-0.46,1.06
0.18,-0.45,1.15
0.18,-0.45,1.21
0.20,-0.45,1.25
0.15,-0.44,1.24
-0.03,-0.43,1.19
-0.22,-0.45,1.14
-0.38,-0.42,1.05
-0.47,-0.43,0.97
-0.41,-0.41,0.89
-0.31,-0.38,0.84
-0.19,-0.36,0.92
-0.10,-0.34,0.99
-0.51,-0.57,1.46
1.02,-0.20,4.00
2.21,0.09,3.39
-0.04,-0.37,0.22
-1.48,-0.45,-0.43
-0.70,-0.40,0.62
-0.05,-0.42,0.78
-0.24,-0.38,0.53
-0.10,-0.39,0.78
0.10,-0.38,0.91
0.11,-0.39,1.02
-0.01,-0.40,1.04
-0.03,-0.40,0.99
-0.01,-0.39,1.01
0.02,-0.38,1.10
0.01,-0.37,1.08
-0.03,-0.37,1.08
-0.10,-0.36,1.04
-0.16,-0.36,0.96
-0.14,-0.36,0.91
-0.09,-0.35,0.93
-0.03,-0.35,0.94
0.03,-0.35,0.93
0.06,-0.35,0.92
0.06,-0.35,0.90
0.04,-0.36,0.89
0.03,-0.36,0.90
0.00,-0.36,0.93
0.00,-0.37,0.96
0.02,-0.37,0.97
0.02,-0.37,0.98
0.03,-0.37,0.97
0.02,-0.37,0.95
0.01,-0.37,0.95
0.00,-0.37,0.96
-0.00,-0.36,0.94
0.01,-0.36,0.94
0.02,-0.37,0.97
0.05,-0.37,0.97
0.02,-0.37,0.95
-0.01,-0.36,0.93
-0.02,-0.39,0.90
0.03,-0.35,0.96
-0.01,-0.36,0.93
0.02,-0.36,0.99
0.02,-0.38,0.97
0.00,-0.37,0.95
-0.01,-0.38,0.94
0.02,-0.36,0.93
-0.02,-0.37,0.93
-0.03,-0.38,0.94
-0.01,-0.37,0.96
-0.00,-0.38,0.94
0.01,-0.37,0.95
0.03,-0.37,0.94
0.03,-0.37,0.94
0.02,-0.37,0.94
0.02,-0.37,0.93
-0.00,-0.37,0.95
-0.02,-0.37,0.95
-0.02,-0.37,0.95
-0.00,-0.38,0.93
-0.00,-0.37,0.94
0.01,-0.37,0.95
0.02,-0.37,0.95
0.03,-0.38,0.96
0.02,-0.37,0.95
0.02,-0.37,0.94
-0.00,-0.37,0.95
-0.01,-0.37,0.95
-0.01,-0.37,0.96
-0.01,-0.38,0.95
-0.02,-0.37,0.93
-0.03,-0.37,0.90
-0.03,-0.38,0.91
-0.03,-0.38,0.91
-0.02,-0.39,0.96
-0.01,-0.39,0.97
-0.03,-0.39,0.96
-0.03,-0.39,0.95
-0.01,-0.38,0.94
-0.04,-0.39,0.95
-0.04,-0.39,0.93
-0.02,-0.39,0.93
-0.02,-0.39,0.96
-0.03,-0.39,0.98
-0.02,-0.39,0.98
-0.01,-0.38,0.96
-0.01,-0.38,0.94
-0.03,-0.39,0.95
-0.04,-0.38,0.92
-0.03,-0.39,0.92
-0.03,-0.39,0.94
-0.06,-0.39,0.98
-0.05,-0.39,1.06
-0.03,-0.39,1.13
-0.02,-0.39,1.17
-0.02,-0.39,1.18
-0.04,-0.40,1.21
-0.04,-0.41,1.50
-0.01,-0.43,1.55
-0.06,-0.43,1.53
-0.05,-0.43,1.59
0.02,-0.43,1.52
0.08,-0.44,1.50
0.09,-0.43,1.41
0.06,-0.44,1.38
0.01,-0.45,1.36
0.04,-0.46,1.35
0.07,-0.46,1.29
-0.01,-0.46,1.28
-0.02,-0.47,1.28
0.04,-0.47,1.29
0.12,-0.47,1.25
0.11,-0.46,1.19
0.11,-0.46,1.26
0.10,-0.46,1.27
0.13,-0.46,1.31
0.12,-0.46,1.31
0.14,-0.47,1.17
0.10,-0.47,1.06
-0.02,-0.48,1.06
-0.04,-0.50,0.97
0.00,-0.49,0.96
0.05,-0.49,0.93
0.03,-0.48,0.90
-0.00,-0.49,0.68
-0.05,-0.49,0.77
-0.15,-0.48,0.67
-0.13,-0.48,0.51
-0.08,-0.47,0.40
-0.03,-0.49,0.45
0.02,-0.50,0.49
0.03,-0.49,0.44
0.00,-0.49,0.40
0.03,-0.48,0.38
0.08,-0.49,0.27
-0.15,-0.42,0.38
-0.07,-0.49,0.18
-0.12,-0.47,0.01
-0.10,-0.50,0.03
-0.06,-0.51,0.07
-0.05,-0.50,-0.07
-0.05,-0.51,-0.10
-0.06,-0.51,-0.14
-0.05,-0.51,-0.19
-0.02,-0.50,-0.18
-0.09,-0.51,-0.12
-0.12,-0.50,-0.16
-0.14,-0.47,-0.30
-0.12,-0.43,-0.45
-0.02,-0.40,-0.72
-0.04,-0.38,-0.86
-0.07,-0.35,-0.86
-0.18,-0.38,-0.81
-0.28,-0.33,-1.00
-0.18,-0.34,-1.12
-0.17,-0.33,-1.29
-0.25,-0.32,-1.49
-0.30,-0.31,-1.62
-0.35,-0.32,-1.61
-0.43,-0.35,-1.57
-0.47,-0.37,-1.48
-0.52,-0.39,-1.44
-0.52,-0.41,-1.40
-0.52,-0.43,-1.38
-0.45,-0.43,-1.44
-0.44,-0.42,-1.30
-0.49,-0.48,-1.20
-0.50,-0.48,-1.19
-0.46,-0.50,-1.11
-0.41,-0.52,-1.08
-0.31,-0.54,-1.03
-0.28,-0.56,-0.93
-0.29,-0.57,-0.84
-0.23,-0.59,-0.79
-0.18,-0.61,-0.74
-0.17,-0.60,-0.74
-0.10,-0.62,-0.72
-0.08,-0.60,-0.71
-0.04,-0.61,-0.66
-0.07,-0.62,-0.64
-0.13,-0.60,-0.63
-0.19,-0.63,-0.63
-0.28,-0.63,-0.64
-0.35,-0.66,-0.64
-0.39,-0.67,-0.65
-0.38,-0.68,-0.61
-0.35,-0.69,-0.50
-0.30,-0.69,-0.43
-0.23,-0.69,-0.37
-0.14,-0.68,-0.30
-0.08,-0.67,-0.27
-0.04,-0.66,-0.24
-0.10,-0.66,-0.17
-0.23,-0.67,-0.09
-0.29,-0.68,-0.10
-0.32,-0.68,-0.15
-0.33,-0.67,-0.22
-0.25,-0.66,-0.14
-0.18,-0.66,-0.03
-0.09,-0.65,-0.01
0.03,-0.65,0.11
0.11,-0.64,0.13
0.18,-0.63,0.14
0.05,-0.62,0.18
-0.12,-0.62,0.27
-0.27,-0.62,0.37
-0.37,-0.62,0.42
-0.43,-0.62,0.51
-0.30,-0.61,0.63
-0.09,-0.63,0.75
0.06,-0.63,0.76
0.17,-0.64,0.74
0.28,-0.63,0.71
0.34,-0.63,0.71
0.34,-0.62,0.71
0.13,-0.62,0.77
-0.14,-0.65,0.86
-0.30,-0.66,0.86
-0.33,-0.69,0.74
-0.23,-0.62,0.73
-0.11,-0.63,0.65
0.05,-0.60,0.68
0.23,-0.58,0.77
0.33,-0.56,0.73
0.41,-0.55,0.73
0.43,-0.55,0.72
0.31,-0.53,0.64
0.06,-0.52,0.61
-0.13,-0.52,0.66
-0.20,-0.49,0.72
-0.28,-0.48,0.85
-0.19,-0.46,0.87
-0.04,-0.40,0.87
0.09,-0.37,0.89
0.17,-0.34,0.90
0.21,-0.32,0.95
0.18,-0.27,1.05
-0.22,-0.67,1.19
-1.53,0.25,4.00
3.52,0.93,4.00
1.64,-0.22,0.51
-1.34,-0.17,-2.88
-1.34,-0.32,-2.35
-0.05,-0.41,0.85
0.18,-0.42,1.20
0.16,-0.40,0.51
0.09,-0.38,0.39
0.28,-0.38,0.66
0.34,-0.39,0.71
0.31,-0.37,0.66
0.13,-0.46,0.76
-0.16,-0.55,1.24
-0.13,-0.49,2.07
0.39,-0.53,2.30
0.10,-0.46,1.21
-0.19,-0.44,0.33
-0.06,-0.42,0.23
0.06,-0.42,0.54
0.12,-0.41,0.73
0.18,-0.41,0.90
0.23,-0.41,1.11
0.22,-0.42,1.17
0.14,-0.41,1.04
0.05,-0.41,0.89
0.01,-0.42,0.84
-0.00,-0.43,0.87
0.01,-0.44,0.91
0.07,-0.44,0.93
0.12,-0.44,0.93
0.17,-0.43,0.91
0.17,-0.43,0.93
0.14,-0.44,0.93
0.09,-0.43,0.90
0.07,-0.44,0.88
0.08,-0.44,0.91
0.09,-0.44,0.93
0.06,-0.44,0.94
0.05,-0.43,0.91
0.06,-0.43,0.90
0.08,-0.43,0.90
0.08,-0.43,0.93
0.07,-0.44,0.92
0.08,-0.43,0.92
0.08,-0.44,0.92
0.06,-0.43,0.91
0.07,-0.43,0.91
0.06,-0.43,0.90
0.09,-0.44,0.90
0.10,-0.43,0.93
0.10,-0.43,0.93
0.09,-0.43,0.92
0.08,-0.44,0.91
0.07,-0.44,0.91
0.08,-0.44,0.92
0.08,-0.44,0.92
0.08,-0.44,0.91
0.09,-0.43,0.90
0.07,-0.44,0.91
0.06,-0.43,0.90
0.07,-0.44,0.90
0.09,-0.44,0.93
0.08,-0.44,0.93
0.07,-0.44,0.92
0.07,-0.44,0.91
0.06,-0.44,0.91
0.05,-0.44,0.92
0.06,-0.45,0.92
0.06,-0.44,0.90
0.05,-0.44,0.90
0.05,-0.44,0.91
0.04,-0.44,0.92
0.07,-0.44,0.92
0.06,-0.44,0.91
0.04,-0.44,0.91
0.08,-0.44,0.92
0.05,-0.44,0.90
0.08,-0.44,0.90
0.07,-0.44,0.92
0.05,-0.44,0.91
0.07,-0.44,0.92
0.06,-0.44,0.91
0.06,-0.44,0.91
0.06,-0.44,0.92
0.04,-0.44,0.91
0.04,-0.45,0.91
0.05,-0.45,0.91
0.04,-0.45,0.92
0.05,-0.45,0.92
0.05,-0.45,0.91
0.05,-0.44,0.89
0.07,-0.45,0.91
0.05,-0.44,0.91
0.06,-0.44,0.91
0.06,-0.44,0.92
0.06,-0.44,0.91
0.06,-0.44,0.92
0.07,-0.44,0.92
0.07,-0.44,0.92
0.06,-0.44,0.91
0.05,-0.44,0.90
0.05,-0.44,0.89
0.06,-0.45,0.91
0.05,-0.45,0.92
0.05,-0.45,0.92
0.06,-0.45,0.91
0.06,-0.44,0.91
0.06,-0.44,0.92
0.05,-0.44,0.91
0.04,-0.44,0.91
0.03,-0.44,0.91
0.03,-0.44,0.92
0.05,-0.44,0.91
0.05,-0.44,0.91
0.06,-0.44,0.91
0.07,-0.45,0.91
0.05,-0.45,0.91
0.05,-0.45,0.91
0.05,-0.45,0.91
0.03,-0.45,0.92
0.03,-0.45,0.92
0.03,-0.45,0.91
0.05,-0.45,0.91
0.05,-0.44,0.90
0.04,-0.44,0.92
0.04,-0.44,0.92
0.05,-0.44,0.90
0.06,-0.44,0.91
0.06,-0.45,0.92
0.05,-0.44,0.92
0.04,-0.45,0.91
0.05,-0.44,0.90
0.04,-0.44,0.91
0.04,-0.45,0.92
0.05,-0.44,0.92
0.04,-0.44,0.90
0.05,-0.44,0.91
0.05,-0.45,0.91
0.05,-0.44,0.91
0.05,-0.45,0.92
0.04,-0.45,0.91
0.05,-0.45,0.92
0.04,-0.45,0.91
0.05,-0.45,0.91
0.05,-0.44,0.90
0.05,-0.45,0.91
0.05,-0.45,0.92
0.06,-0.45,0.91
0.06,-0.45,0.91
0.04,-0.45,0.91
0.03,-0.44,0.89
0.05,-0.44,0.90
0.06,-0.45,0.92
0.06,-0.45,0.93
0.07,-0.44,0.93
0.06,-0.44,0.91
0.06,-0.44,0.92
0.05,-0.44,0.90
0.05,-0.44,0.91
0.06,-0.44,0.91
0.06,-0.44,0.90
0.06,-0.44,0.92
0.05,-0.45,0.91
0.05,-0.44,0.91
0.05,-0.45,0.90
0.05,-0.45,0.91
0.06,-0.45,0.92
0.06,-0.45,0.93
0.05,-0.45,0.91
0.05,-0.45,0.91
0.04,-0.45,0.91
0.03,-0.45,0.90
0.05,-0.45,0.91
0.05,-0.45,0.92
0.06,-0.44,0.92
0.06,-0.44,0.92
0.05,-0.44,0.91
0.04,-0.44,0.91
0.05,-0.44,0.91
0.05,-0.44,0.91
0.06,-0.44,0.91
0.06,-0.44,0.92
0.06,-0.45,0.92
0.06,-0.45,0.92
0.05,-0.45,0.92
0.05,-0.45,0.91
0.05,-0.45,0.91
0.05,-0.45,0.91
0.06,-0.45,0.91
0.04,-0.45,0.92
0.04,-0.45,0.92
0.05,-0.45,0.91
0.05,-0.45,0.91
0.03,-0.45,0.91
0.09,-0.45,0.92
0.02,-0.45,0.90
0.04,-0.45,0.92
0.05,-0.45,0.91
0.06,-0.45,0.92
0.06,-0.45,0.92
0.05,-0.45,0.90
0.05,-0.45,0.91
0.06,-0.45,0.92
0.06,-0.45,0.92
0.07,-0.44,0.90
0.07,-0.44,0.90
0.07,-0.44,0.91
0.06,-0.44,0.92
0.06,-0.44,0.92
0.06,-0.44,0.92
0.06,-0.44,0.91
0.06,-0.44,0.91
0.06,-0.45,0.91
0.06,-0.45,0.92
0.05,-0.45,0.92
0.05,-0.45,0.90
0.05,-0.45,0.91
0.05,-0.45,0.92
0.05,-0.45,0.92
0.04,-0.45,0.92
0.03,-0.45,0.91
0.03,-0.45,0.90
0.04,-0.45,0.90
0.04,-0.45,0.93
0.04,-0.45,0.93
0.05,-0.45,0.92
0.05,-0.45,0.90
0.06,-0.45,0.91
0.06,-0.45,0.91
0.05,-0.45,0.92
0.05,-0.45,0.91
0.04,-0.45,0.92
0.04,-0.45,0.92
0.04,-0.45,0.91
0.04,-0.45,0.91
0.04,-0.45,0.91
0.05,-0.44,0.90
0.06,-0.45,0.92
0.06,-0.45,0.92
0.06,-0.45,0.92
0.04,-0.45,0.91
0.05,-0.44,0.91
0.05,-0.45,0.92
0.06,-0.45,0.91
0.06,-0.45,0.92
0.06,-0.44,0.91
0.06,-0.45,0.91
0.05,-0.45,0.92
0.04,-0.45,0.91
0.05,-0.45,0.91
0.05,-0.45,0.92
0.05,-0.45,0.91
0.04,-0.45,0.92
0.05,-0.44,0.91
0.04,-0.44,0.91
0.04,-0.44,0.90
0.06,-0.45,0.90
0.05,-0.45,0.92
0.05,-0.45,0.92
0.05,-0.45,0.92
0.05,-0.45,0.90
0.06,-0.45,0.90
0.06,-0.45,0.91
0.06,-0.45,0.91
0.07,-0.45,0.92
0.06,-0.45,0.92
0.05,-0.45,0.91
0.05,-0.45,0.91
0.05,-0.45,0.91
0.04,-0.45,0.92
0.03,-0.45,0.91
0.03,-0.45,0.91
0.03,-0.45,0.91
0.03,-0.45,0.91
0.03,-0.45,0.91
0.04,-0.45,0.91
0.04,-0.45,0.90
0.04,-0.46,0.91
0.05,-0.45,0.92
0.05,-0.45,0.92
0.04,-0.45,0.91
0.04,-0.45,0.91
0.04,-0.45,0.91
0.04,-0.45,0.91
0.06,-0.45,0.91
0.05,-0.45,0.92
0.04,-0.45,0.93
0.04,-0.45,0.90
0.03,-0.44,0.90
0.04,-0.45,0.91
0.03,-0.45,0.91
0.04,-0.45,0.91
0.05,-0.45,0.92
0.05,-0.45,0.92
0.05,-0.45,0.91
0.04,-0.45,0.91
0.04,-0.45,0.90
0.05,-0.45,0.91
0.05,-0.45,0.91
0.05,-0.45,0.91
0.06,-0.45,0.91
0.06,-0.45,0.92
0.06,-0.45,0.92
0.05,-0.45,0.91
0.04,-0.45,0.90
0.04,-0.45,0.90
0.04,-0.45,0.92
0.04,-0.45,0.92
0.04,-0.45,0.91
0.04,-0.45,0.91
0.04,-0.45,0.91
0.04,-0.45,0.92
0.05,-0.45,0.90
0.04,-0.45,0.90
0.06,-0.45,0.91
0.05,-0.45,0.92
0.05,-0.45,0.91
0.05,-0.45,0.91
0.05,-0.45,0.91
0.05,-0.45,0.91
0.05,-0.45,0.91
0.06,-0.45,0.91
0.06,-0.45,0.91
0.05,-0.46,0.91
0.04,-0.45,0.90
0.04,-0.45,0.91
0.04,-0.45,0.91
0.04,-0.45,0.92
0.04,-0.46,0.91
0.04,-0.45,0.91
0.04,-0.45,0.90
0.04,-0.45,0.92
0.04,-0.45,0.91
0.05,-0.45,0.91
0.05,-0.45,0.91
0.05,-0.45,0.91
0.04,-0.45,0.91
0.06,-0.45,0.91
0.05,-0.45,0.92
0.05,-0.45,0.91
0.05,-0.45,0.90
0.05,-0.45,0.90
0.04,-0.45,0.90
0.05,-0.46,0.91
0.04,-0.45,0.92
0.04,-0.46,0.91
0.04,-0.46,0.91
0.04,-0.46,0.91
0.04,-0.46,0.91
0.04,-0.45,0.91
0.04,-0.45,0.91
0.05,-0.45,0.91
0.05,-0.45,0.92
0.05,-0.45,0.91
0.04,-0.45,0.90
0.05,-0.45,0.90
0.03,-0.45,0.91
0.04,-0.45,0.92
0.05,-0.45,0.91
0.06,-0.46,0.91
0.05,-0.45,0.91
0.04,-0.46,0.90
0.04,-0.46,0.90
0.04,-0.45,0.90
0.04,-0.45,0.92
0.04,-0.46,0.93
0.05,-0.45,0.92
0.05,-0.45,0.91
0.05,-0.45,0.90
0.04,-0.45,0.91
0.05,-0.45,0.92
0.05,-0.45,0.91
0.04,-0.45,0.92
0.03,-0.45,0.90
0.03,-0.45,0.91
0.04,-0.45,0.91
0.04,-0.45,0.91
0.03,-0.45,0.91
0.04,-0.45,0.91
0.05,-0.45,0.91
0.05,-0.45,0.91
0.05,-0.45,0.92
0.05,-0.45,0.92
0.05,-0.46,0.91
0.05,-0.45,0.91
0.06,-0.45,0.92
0.06,-0.45,0.92
0.05,-0.45,0.90
0.04,-0.45,0.91
0.03,-0.45,0.90
0.02,-0.45,0.91
0.04,-0.45,0.91
0.04,-0.46,0.91
0.04,-0.45,0.91
0.05,-0.46,0.92
0.05,-0.46,0.91
0.05,-0.46,0.90
0.06,-0.46,0.91
0.05,-0.45,0.91
0.05,-0.45,0.91
0.05,-0.45,0.91
0.05,-0.45,0.90
0.05,-0.45,0.92
0.05,-0.45,0.91
0.05,-0.45,0.90
0.05,-0.45,0.91
0.04,-0.45,0.92
0.03,-0.45,0.89
0.04,-0.46,0.90
0.04,-0.46,0.93
0.04,-0.46,0.92
0.04,-0.46,0.91
0.04,-0.45,0.91
0.04,-0.46,0.91
0.04,-0.46,0.91
0.05,-0.46,0.91
0.04,-0.45,0.90
0.04,-0.45,0.91
0.04,-0.45,0.92
0.04,-0.45,0.91
0.05,-0.45,0.91
0.05,-0.45,0.92
0.05,-0.45,0.91
0.05,-0.45,0.91
0.04,-0.45,0.91
0.04,-0.45,0.92
0.04,-0.45,0.91
0.05,-0.45,0.91
0.04,-0.46,0.91
0.04,-0.46,0.91
0.04,-0.46,0.90
0.05,-0.46,0.91
0.04,-0.46,0.91
0.04,-0.46,0.91
0.05,-0.45,0.91
0.05,-0.45,0.92
0.04,-0.46,0.91
0.05,-0.45,0.90
0.04,-0.45,0.90
0.05,-0.46,0.91
0.04,-0.45,0.92
0.04,-0.45,0.90
0.05,-0.46,0.91
0.05,-0.46,0.92
0.04,-0.46,0.91
0.05,-0.45,0.91
0.03,-0.46,0.90
0.04,-0.45,0.91
0.04,-0.45,0.91
0.04,-0.45,0.91
0.05,-0.45,0.92
0.05,-0.45,0.91
0.05,-0.45,0.92
0.05,-0.45,0.91
0.04,-0.45,0.90
0.05,-0.45,0.90
0.04,-0.45,0.91
0.05,-0.46,0.92
0.05,-0.46,0.92
0.05,-0.46,0.91
0.04,-0.45,0.90
0.05,-0.46,0.91
0.05,-0.45,0.92
0.05,-0.45,0.91
0.05,-0.46,0.91
0.04,-0.46,0.91
0.05,-0.45,0.91
0.05,-0.45,0.92
0.05,-0.46,0.91
0.05,-0.45,0.91
0.05,-0.45,0.89
0.05,-0.45,0.90
0.05,-0.46,0.92
0.04,-0.46,0.91
0.05,-0.46,0.91
0.04,-0.46,0.91
0.05,-0.46,0.92
0.05,-0.45,0.90
0.05,-0.45,0.91
0.05,-0.46,0.91
0.05,-0.45,0.91
0.05,-0.46,0.91
0.04,-0.45,0.90
0.04,-0.45,0.91
0.04,-0.46,0.91
0.04,-0.45,0.91
0.05,-0.45,0.91
0.04,-0.45,0.91
0.04,-0.45,0.90
0.05,-0.46,0.91
0.05,-0.46,0.91
0.05,-0.46,0.92
0.05,-0.46,0.91
0.05,-0.45,0.90
0.05,-0.46,0.92
0.06,-0.46,0.91
0.05,-0.46,0.91
0.04,-0.45,0.90
0.04,-0.45,0.91
0.04,-0.46,0.90
0.04,-0.46,0.91
0.05,-0.46,0.92
0.05,-0.45,0.91
0.05,-0.45,0.91
0.05,-0.45,0.91
0.05,-0.45,0.91
0.06,-0.45,0.91
0.06,-0.46,0.91
0.05,-0.46,0.92
0.04,-0.46,0.90
0.04,-0.46,0.90
0.04,-0.46,0.91
0.03,-0.46,0.90
0.06,-0.46,0.92
0.05,-0.45,0.92
0.04,-0.46,0.91
0.05,-0.45,0.91
0.05,-0.45,0.91
0.05,-0.46,0.91
0.05,-0.45,0.91
0.05,-0.45,0.90
0.06,-0.46,0.91
0.04,-0.45,0.91
0.04,-0.46,0.91
0.05,-0.46,0.91
0.04,-0.46,0.91
0.05,-0.46,0.91
0.04,-0.45,0.91
0.04,-0.46,0.91
0.05,-0.45,0.91
0.05,-0.45,0.91
0.05,-0.45,0.90
0.05,-0.46,0.92
0.05,-0.46,0.91
0.05,-0.45,0.90
0.05,-0.45,0.91
0.05,-0.46,0.92
0.04,-0.46,0.91
0.04,-0.46,0.91
0.05,-0.46,0.91
0.04,-0.46,0.91
0.05,-0.46,0.91
0.05,-0.46,0.91
0.04,-0.46,0.90
0.05,-0.46,0.90
0.05,-0.46,0.92
0.05,-0.46,0.91
0.05,-0.45,0.91
0.05,-0.45,0.91
0.05,-0.45,0.91
0.05,-0.45,0.91
0.05,-0.45,0.91
0.05,-0.46,0.91
0.04,-0.46,0.89
0.04,-0.46,0.91
0.04,-0.46,0.92
0.04,-0.46,0.91
0.05,-0.46,0.90
0.05,-0.46,0.92
0.05,-0.46,0.92
0.05,-0.45,0.91
0.05,-0.45,0.91
0.05,-0.46,0.90
0.05,-0.45,0.91
0.04,-0.45,0.90
0.04,-0.46,0.91
0.04,-0.46,0.92
0.05,-0.46,0.91
0.05,-0.46,0.90
0.05,-0.46,0.91
0.04,-0.46,0.91
0.04,-0.46,0.91
0.05,-0.46,0.90
0.04,-0.46,0.90
0.05,-0.46,0.91
0.05,-0.46,0.92
0.05,-0.46,0.91
0.04,-0.46,0.90
0.04,-0.46,0.90
0.04,-0.46,0.91
0.04,-0.46,0.91
0.04,-0.45,0.90
0.05,-0.45,0.91
0.05,-0.46,0.91
0.05,-0.45,0.91
0.05,-0.46,0.91
0.05,-0.46,0.91
0.05,-0.46,0.91
0.05,-0.46,0.91
0.04,-0.46,0.91
0.04,-0.46,0.91
0.04,-0.46,0.91
0.05,-0.46,0.91
0.05,-0.46,0.91
0.04,-0.46,0.91
0.04,-0.45,0.90
0.04,-0.45,0.89
0.04,-0.45,0.90
0.05,-0.46,0.92
0.04,-0.46,0.92
0.05,-0.46,0.91
0.05,-0.46,0.91
0.05,-0.46,0.92
0.05,-0.46,0.91
0.04,-0.46,0.91
0.04,-0.46,0.90
0.04,-0.46,0.90
0.04,-0.46,0.91
0.04,-0.46,0.91
0.05,-0.46,0.92
0.04,-0.46,0.91
0.04,-0.46,0.91
0.04,-0.46,0.91
0.04,-0.46,0.91
0.05,-0.46,0.91
0.05,-0.46,0.91
0.05,-0.45,0.90
0.05,-0.46,0.91
0.04,-0.46,0.91
0.05,-0.46,0.91
0.05,-0.46,0.91
0.05,-0.46,0.91
0.04,-0.46,0.91
0.04,-0.46,0.91
0.05,-0.46,0.91
0.04,-0.46,0.91
0.04,-0.46,0.91
0.04,-0.46,0.90
0.04,-0.46,0.90
0.05,-0.46,0.92
0.05,-0.46,0.92
0.05,-0.46,0.92
0.04,-0.46,0.91
0.03,-0.46,0.90
0.04,-0.46,0.91
0.04,-0.46,0.90
0.05,-0.46,0.91
0.04,-0.46,0.90
0.05,-0.46,0.91
0.04,-0.46,0.91
0.05,-0.46,0.92
0.05,-0.46,0.91
0.04,-0.46,0.90
0.05,-0.46,0.90
0.04,-0.46,0.91
0.05,-0.46,0.91
0.04,-0.46,0.91
0.03,-0.46,0.90
0.04,-0.46,0.91
0.04,-0.46,0.91
0.05,-0.46,0.91
0.05,-0.46,0.91
0.04,-0.46,0.91
0.05,-0.46,0.90
0.05,-0.46,0.90
0.05,-0.46,0.91
0.04,-0.46,0.91
0.03,-0.45,0.90
0.04,-0.46,0.90
0.05,-0.47,0.91
0.04,-0.47,0.92
0.05,-0.47,0.91
0.05,-0.46,0.91
0.04,-0.46,0.90
0.04,-0.46,0.90
0.04,-0.45,0.91
0.04,-0.45,0.91
0.05,-0.45,0.90
0.06,-0.46,0.91
0.05,-0.46,0.91
0.05,-0.46,0.91
0.05,-0.46,0.91
0.04,-0.46,0.91
0.04,-0.46,0.91
0.03,-0.46,0.91
0.03,-0.46,0.90
0.04,-0.46,0.90
0.04,-0.46,0.91
0.03,-0.46,0.91
0.04,-0.45,0.91
0.04,-0.45,0.90
0.04,-0.45,0.91
0.05,-0.45,0.91
0.05,-0.45,0.92
0.04,-0.46,0.91
0.04,-0.46,0.91
0.04,-0.46,0.90
0.03,-0.46,0.90
0.03,-0.46,0.90
0.03,-0.46,0.91
0.03,-0.46,0.92
0.04,-0.46,0.92
0.04,-0.46,0.90
0.04,-0.46,0.91
0.04,-0.46,0.91
0.05,-0.46,0.91
0.05,-0.46,0.91
0.05,-0.46,0.91
0.05,-0.46,0.91
0.05,-0.46,0.91
0.05,-0.46,0.90
0.05,-0.46,0.91
0.05,-0.46,0.91
0.05,-0.46,0.91
0.04,-0.46,0.91
0.04,-0.46,0.91
0.03,-0.46,0.91
0.04,-0.46,0.91
0.04,-0.46,0.90
0.04,-0.46,0.90
0.05,-0.46,0.91
0.04,-0.46,0.91
0.04,-0.47,0.90
0.05,-0.46,0.91
0.05,-0.46,0.91
0.05,-0.46,0.91
0.04,-0.46,0.91
0.04,-0.46,0.90
0.04,-0.45,0.89
0.04,-0.46,0.90
0.04,-0.46,0.91
0.05,-0.46,0.91
0.05,-0.46,0.91
0.04,-0.46,0.91
0.04,-0.46,0.91
0.04,-0.46,0.91
0.04,-0.46,0.91
0.04,-0.46,0.90
0.04,-0.46,0.90
0.04,-0.46,0.90
0.03,-0.46,0.91
0.03,-0.46,0.91
0.03,-0.46,0.91
0.04,-0.46,0.91
0.04,-0.46,0.90
0.05,-0.46,0.91
0.04,-0.46,0.91
0.04,-0.46,0.91
0.04,-0.46,0.91
0.04,-0.46,0.91
0.03,-0.46,0.90
0.04,-0.46,0.91
0.04,-0.46,0.90
0.05,-0.46,0.90
0.04,-0.46,0.91
0.04,-0.46,0.91
0.04,-0.46,0.90
0.04,-0.46,0.90
0.04,-0.46,0.91
0.05,-0.46,0.91
0.05,-0.46,0.91
0.06,-0.46,0.91
0.05,-0.46,0.91
0.05,-0.46,0.91
0.05,-0.46,0.91
0.04,-0.46,0.91
0.04,-0.46,0.91
0.03,-0.46,0.90
0.02,-0.46,0.90
0.02,-0.46,0.91
0.03,-0.46,0.90
0.03,-0.46,0.90
0.03,-0.46,0.91
0.03,-0.46,0.91
0.04,-0.46,0.91
0.05,-0.46,0.90
0.04,-0.46,0.90
0.04,-0.46,0.92
0.05,-0.46,0.90
0.05,-0.46,0.91
0.05,-0.46,0.90
0.05,-0.46,0.91
0.05,-0.46,0.91
0.04,-0.46,0.91
0.04,-0.46,0.90
0.04,-0.46,0.90
0.04,-0.46,0.91
0.03,-0.46,0.91
0.03,-0.46,0.91
0.03,-0.46,0.91
0.03,-0.46,0.91
0.03,-0.46,0.90
0.03,-0.46,0.91
0.03,-0.46,0.90
0.04,-0.46,0.91
0.04,-0.46,0.90
0.05,-0.46,0.92
0.05,-0.46,0.91
0.05,-0.46,0.91
0.05,-0.46,0.90
0.04,-0.46,0.91
0.04,-0.46,0.90
0.04,-0.46,0.91
0.04,-0.46,0.92
0.04,-0.46,0.91
0.04,-0.46,0.91
0.03,-0.46,0.90
0.04,-0.46,0.91
0.03,-0.46,0.91
0.04,-0.46,0.90
0.04,-0.46,0.91
0.04,-0.46,0.91
0.04,-0.46,0.91
0.05,-0.46,0.90
0.05,-0.46,0.90
0.03,-0.46,0.90
0.04,-0.46,0.90
0.03,-0.46,0.90
0.04,-0.46,0.91
0.04,-0.46,0.92
0.05,-0.46,0.91
0.04,-0.46,0.90
0.05,-0.46,0.91
0.05,-0.46,0.92
0.04,-0.46,0.91
0.04,-0.46,0.91
0.03,-0.46,0.91
0.03,-0.46,0.90
0.02,-0.46,0.90
0.03,-0.46,0.90
0.03,-0.46,0.90
0.04,-0.46,0.91
0.04,-0.46,0.91
0.04,-0.46,0.91
0.05,-0.46,0.91
0.04,-0.46,0.91
0.04,-0.46,0.91
0.05,-0.46,0.91
0.04,-0.46,0.91
0.05,-0.46,0.92
0.04,-0.46,0.91
0.03,-0.46,0.89
0.04,-0.46,0.90
0.04,-0.46,0.91
0.03,-0.46,0.91
0.03,-0.46,0.91
0.03,-0.46,0.90
0.03,-0.46,0.91
0.03,-0.46,0.90
0.03,-0.46,0.91
0.03,-0.46,0.91
0.03,-0.46,0.90
0.03,-0.46,0.90
0.03,-0.46,0.90
0.03,-0.46,0.91
0.04,-0.47,0.91
0.05,-0.47,0.91
0.05,-0.47,0.90
0.05,-0.47,0.92
0.05,-0.47,0.91
0.05,-0.46,0.91
0.05,-0.46,0.90
0.04,-0.46,0.91
0.04,-0.46,0.90
0.04,-0.46,0.91
0.03,-0.46,0.91
0.04,-0.46,0.92
0.03,-0.46,0.91
0.03,-0.46,0.90
0.03,-0.46,0.90
0.03,-0.46,0.92
0.03,-0.46,0.91
0.04,-0.46,0.90
0.04,-0.46,0.91
0.05,-0.46,0.91
0.04,-0.46,0.90
0.04,-0.46,0.90
0.04,-0.46,0.90
0.03,-0.46,0.91
0.04,-0.46,0.91
0.04,-0.46,0.91
0.03,-0.46,0.91
0.04,-0.46,0.91
0.04,-0.46,0.90
0.03,-0.46,0.91
0.03,-0.46,0.90
0.03,-0.46,0.91
0.02,-0.46,0.90
0.04,-0.47,0.91
0.03,-0.47,0.91
0.04,-0.47,0.91
0.04,-0.47,0.90
0.05,-0.47,0.91
0.04,-0.46,0.91
0.05,-0.46,0.91
0.04,-0.46,0.91
0.05,-0.46,0.91
0.04,-0.46,0.91
0.03,-0.46,0.90
0.03,-0.46,0.89
0.02,-0.46,0.90
0.03,-0.46,0.90
0.03,-0.46,0.91
0.03,-0.46,0.90
0.03,-0.47,0.91
0.03,-0.47,0.92
0.04,-0.46,0.91
0.04,-0.46,0.90
0.04,-0.46,0.90
0.04,-0.46,0.91
0.04,-0.46,0.91
0.04,-0.46,0.91
0.03,-0.46,0.91
0.03,-0.46,0.91
0.03,-0.46,0.90
0.04,-0.46,0.90
